{
  "resourceType": "Bundle",
  "id": "HAICA-TC-Document",
  "meta": {
    "profile": [
      "http://cbsig.chai.gatech.edu/StructureDefinition/cbs-document-bundle"
    ]
  },
  "type": "document",
  "identifier": {
    "type": {
      "coding": [
        {
          "code": "Local-Record-ID",
          "system": "http://cbsig.chai.gatech.edu/CodeSystem/cbs-temp-code-system",
          "display": "Local Record ID"
        }
      ],
      "text": "Local Record ID"
    },
    "system": "urn:temp:national-reporting-jurisdiction:48",
    "value": "C_auris_02"
  },
  "timestamp": "2018-11-26T00:00:00Z",
  "entry": [
    {
      "resource": {
        "resourceType": "Composition",
        "id": "HAICA-TC-Composition",
        "meta": {
          "profile": [
            "http://cbsig.chai.gatech.edu/StructureDefinition/cbs-composition"
          ]
        },
        "status": "final",
        "type": {
          "coding": [
            {
              "code": "55751-2",
              "system": "http://loinc.org"
            }
          ]
        },
        "title": "Case Based Surveillance Composition",
        "section": [
          {
            "title": "Condition of Interest",
            "entry": [
              {
                "reference": "Condition/HAICA-TC-Condition"
              }
            ]
          },
          {
            "title": "Case Notification Panel",
            "entry": [
              {
                "reference": "Observation/HAICA-TC-CNP"
              }
            ],
            "section": [
              {
                "entry": [
                  {
                    "reference": "Observation/HAICA-TC-MMWR"
                  },
                  {
                    "reference": "Observation/HAICA-TC-CNP-Member1"
                  },
                  {
                    "reference": "Observation/HAICA-TC-CNP-Member2"
                  },
                  {
                    "reference": "Observation/HAICA-TC-CNP-Member3"
                  },
                  {
                    "reference": "Observation/HAICA-TC-CNP-Member4"
                  },
                  {
                    "reference": "Observation/HAICA-TC-CNP-Member5"
                  },
                  {
                    "reference": "Observation/HAICA-TC-CNP-Member6"
                  }
                ]
              }
            ]
          },
          {
            "title": "Encounters",
            "entry": [
              {
                "reference": "Encounter/HAICA-TC-Hospitalization"
              }
            ]
          },
          {
            "title": "Reporting",
            "entry": [
              {
                "reference": "Practitioner/HAICA-TC-Person-Reporting"
              },
              {
                "reference": "Organization/HAICA-TC-Reporting-Source"
              }
            ]
          },
          {
            "title": "Laboratory Related Resources",
            "entry": [
              {
                "reference": "DiagnosticReport/HAICA-TC-Lab-DiagnosticReport"
              },
              {
                "reference": "Observation/HAICA-TC-Lab-Observation"
              },
              {
                "reference": "Specimen/HAICA-TC-Specimen"
              }
            ]
          }
        ],
        "subject": {
          "reference": "Patient/HAICA-TC-Patient"
        },
        "date": "2018-11-26",
        "author": [
          {
            "reference": "Organization/HAICA-TC-Reporting-Source"
          }
        ]
      },
      "fullUrl": "Composition/HAICA-TC-Composition"
    },
    {
      "resource": {
        "resourceType": "Patient",
        "id": "HAICA-TC-Patient",
        "meta": {
          "profile": [
            "http://cbsig.chai.gatech.edu/StructureDefinition/cbs-patient"
          ]
        },
        "extension": [
          {
            "extension": [
              {
                "url": "ombCategory",
                "valueCoding": {
                  "code": "2106-3",
                  "system": "urn:oid:2.16.840.1.113883.6.238",
                  "display": "White"
                }
              },
              {
                "url": "detailed",
                "valueCoding": {
                  "code": "2135-2",
                  "system": "urn:oid:2.16.840.1.113883.6.238",
                  "display": "Hispanic or Latino"
                }
              },
              {
                "url": "text",
                "valueString": "Mixed"
              }
            ],
            "url": "http://cbsig.chai.gatech.edu/StructureDefinition/cbs-race"
          },
          {
            "extension": [
              {
                "url": "ombCategory",
                "valueCoding": {
                  "code": "2135-2",
                  "system": "http://terminology.hl7.org/CodeSystem/v2-0005"
                }
              },
              {
                "url": "text",
                "valueString": "Hispanic or Latino"
              }
            ],
            "url": "http://cbsig.chai.gatech.edu/StructureDefinition/cbs-ethnicity"
          },
          {
            "url": "http://cbsig.chai.gatech.edu/StructureDefinition/cbs-birthsex",
            "valueCodeableConcept": {
              "coding": [
                {
                  "code": "F",
                  "system": "http://terminology.hl7.org/CodeSystem/v2-0001",
                  "display": "Female"
                }
              ]
            }
          },
          {
            "url": "http://hl7.org/fhir/StructureDefinition/patient-birthPlace",
            "valueAddress": {
              "country": "USA"
            }
          },
          {
            "url": "http://hl7.org/fhir/StructureDefinition/patient-genderIdentity",
            "valueCodeableConcept": {
              "coding": [
                {
                  "code": "female",
                  "system": "http://hl7.org/fhir/gender-identity"
                }
              ]
            }
          }
        ],
        "address": [
          {
            "use": "Address-at-Diagnosis",
            "district": "Cobb",
            "state": "Georgia",
            "postalCode": "30126"
          },
          {
            "use": "Usual-Residence",
            "country": "USA"
          }
        ],
        "identifier": [
          {
            "type": {
              "coding": [
                {
                  "code": "Local-Record-ID",
                  "system": "http://cbsig.chai.gatech.edu/CodeSystem/cbs-temp-code-system",
                  "display": "Local Record ID"
                }
              ],
              "text": "Local Record ID"
            },
            "system": "urn:temp:national-reporting-jurisdiction:48",
            "value": "C_auris_02"
          },
          {
            "type": {
              "coding": [
                {
                  "code": "Local-Subject-ID",
                  "system": "http://cbsig.chai.gatech.edu/CodeSystem/cbs-temp-code-system",
                  "display": "Local Subject ID"
                }
              ],
              "text": "Local Subject ID"
            },
            "system": "urn:temp:national-reporting-jurisdiction:48",
            "value": "C_auris_PAT_02"
          }
        ],
        "gender": "female",
        "birthDate": "1940-01-01",
        "name": [
          {
            "text": "Yyyyy, Bbbbb",
            "family": "Yyyyy",
            "given": [
              "Bbbbb"
            ]
          }
        ]
      },
      "fullUrl": "Patient/HAICA-TC-Patient"
    },
    {
      "resource": {
        "resourceType": "Condition",
        "id": "HAICA-TC-Condition",
        "meta": {
          "profile": [
            "http://cbsig.chai.gatech.edu/StructureDefinition/cbs-condition"
          ]
        },
        "extension": [
          {
            "url": "http://cbsig.chai.gatech.edu/StructureDefinition/cbs-case-class-status",
            "valueCodeableConcept": {
              "coding": [
                {
                  "code": "410605003",
                  "system": "http://snomed.info/sct",
                  "display": "Confirmed present"
                }
              ]
            }
          }
        ],
        "code": {
          "coding": [
            {
              "code": "50263",
              "system": "urn:oid:2.16.840.1.114222.4.5.277",
              "display": "Candida auris, clinical"
            }
          ]
        },
        "subject": {
          "reference": "Patient/HAICA-TC-Patient",
          "display": "HAI-CA TC Example Patient"
        },
        "onsetDateTime": "2018-11-22"
      },
      "fullUrl": "Condition/HAICA-TC-Condition"
    },
    {
      "resource": {
        "resourceType": "Encounter",
        "id": "HAICA-TC-Hospitalization",
        "meta": {
          "profile": [
            "http://cbsig.chai.gatech.edu/StructureDefinition/cbs-hospitalization"
          ]
        },
        "status": "unknown",
        "class": {
          "code": "IMP",
          "system": "http://terminology.hl7.org/CodeSystem/v3-ActCode"
        },
        "subject": {
          "reference": "Patient/HAICA-TC-Patient",
          "display": "HAI-CA TC Example Patient"
        },
        "period": {
          "start": "2018-11-24"
        },
        "diagnosis": [
          {
            "condition": {
              "reference": "Condition/HAICA-TC-Condition",
              "display": "HAI-CA TC Condition of Interest"
            }
          }
        ]
      },
      "fullUrl": "Encounter/HAICA-TC-Hospitalization"
    },
    {
      "resource": {
        "resourceType": "Practitioner",
        "id": "HAICA-TC-Person-Reporting",
        "meta": {
          "profile": [
            "http://cbsig.chai.gatech.edu/StructureDefinition/cbs-person-reporting-to-cdc"
          ]
        },
        "telecom": [
          {
            "system": "email",
            "value": "count_voncount@gadph.gov"
          }
        ],
        "name": [
          {
            "text": "von Count, Count",
            "family": "von Count",
            "given": [
              "Count"
            ]
          }
        ]
      },
      "fullUrl": "Practitioner/HAICA-TC-Person-Reporting"
    },
    {
      "resource": {
        "resourceType": "Organization",
        "id": "HAICA-TC-Reporting-Source",
        "meta": {
          "profile": [
            "http://cbsig.chai.gatech.edu/StructureDefinition/cbs-reporting-source-organization"
          ]
        },
        "name": "Reporting Source",
        "type": [
          {
            "coding": [
              {
                "code": "UNK",
                "system": "http://terminology.hl7.org/CodeSystem/v3-NullFlavor",
                "display": "Unknown"
              }
            ]
          }
        ]
      },
      "fullUrl": "Organization/HAICA-TC-Reporting-Source"
    },
    {
      "resource": {
        "resourceType": "Observation",
        "id": "HAICA-TC-CNP",
        "meta": {
          "profile": [
            "http://cbsig.chai.gatech.edu/StructureDefinition/cbs-case-notification-panel"
          ]
        },
        "status": "final",
        "category": [
          {
            "coding": [
              {
                "code": "78000-7",
                "system": "http://loinc.org",
                "display": "Case notification panel [CDC.PHIN]"
              }
            ]
          }
        ],
        "code": {
          "coding": [
            {
              "code": "78000-7",
              "system": "http://loinc.org",
              "display": "Case notification panel [CDC.PHIN]"
            }
          ]
        },
        "subject": {
          "reference": "Patient/HAICA-TC-Patient",
          "display": "HAICA-TC Example Patient"
        },
        "hasMember": [
          {
            "reference": "Observation/HAICA-TC-MMWR"
          },
          {
            "reference": "Observation/HAICA-TC-CNP-Member1"
          },
          {
            "reference": "Observation/HAICA-TC-CNP-Member2"
          },
          {
            "reference": "Observation/HAICA-TC-CNP-Member3"
          },
          {
            "reference": "Observation/HAICA-TC-CNP-Member4"
          },
          {
            "reference": "Observation/HAICA-TC-CNP-Member5"
          },
          {
            "reference": "Observation/HAICA-TC-CNP-Member6"
          }
        ]
      },
      "fullUrl": "Observation/HAICA-TC-CNP"
    },
    {
      "resource": {
        "resourceType": "Observation",
        "id": "HAICA-TC-MMWR",
        "meta": {
          "profile": [
            "http://cbsig.chai.gatech.edu/StructureDefinition/cbs-mmwr"
          ]
        },
        "status": "final",
        "category": [
          {
            "coding": [
              {
                "code": "78000-7",
                "system": "http://loinc.org",
                "display": "Case notification panel [CDC.PHIN]"
              }
            ]
          }
        ],
        "code": {
          "coding": [
            {
              "code": "MMWR",
              "system": "http://cbsig.chai.gatech.edu/CodeSystem/cbs-temp-code-system"
            }
          ]
        },
        "component": [
          {
            "code": {
              "coding": [
                {
                  "code": "77991-8",
                  "system": "http://loinc.org"
                }
              ]
            },
            "valueInteger": 48
          },
          {
            "code": {
              "coding": [
                {
                  "code": "77992-6",
                  "system": "http://loinc.org"
                }
              ]
            },
            "valueInteger": 2018
          }
        ],
        "subject": {
          "reference": "Patient/HAICA-TC-Patient",
          "display": "HAI-CA TC Example Patient"
        }
      },
      "fullUrl": "Observation/HAICA-TC-MMWR"
    },
    {
      "resource": {
        "resourceType": "Observation",
        "id": "HAICA-TC-CNP-Member1",
        "meta": {
          "profile": [
            "http://cbsig.chai.gatech.edu/StructureDefinition/cbs-cnp-member"
          ]
        },
        "status": "final",
        "category": [
          {
            "coding": [
              {
                "code": "78000-7",
                "system": "http://loinc.org",
                "display": "Case notification panel [CDC.PHIN]"
              }
            ]
          }
        ],
        "code": {
          "coding": [
            {
              "code": "77966-0",
              "system": "http://loinc.org",
              "display": "Reporting state"
            }
          ]
        },
        "subject": {
          "reference": "Patient/HAICA-TC-Patient",
          "display": "HAICA-TC Example Patient"
        },
        "valueCodeableConcept": {
          "coding": [
            {
              "code": "13",
              "system": "urn:oid:2.16.840.1.113883.6.92",
              "display": "Georgia"
            }
          ]
        }
      },
      "fullUrl": "Observation/HAICA-TC-CNP-Member1"
    },
    {
      "resource": {
        "resourceType": "Observation",
        "id": "HAICA-TC-CNP-Member2",
        "meta": {
          "profile": [
            "http://cbsig.chai.gatech.edu/StructureDefinition/cbs-cnp-member"
          ]
        },
        "status": "final",
        "category": [
          {
            "coding": [
              {
                "code": "78000-7",
                "system": "http://loinc.org",
                "display": "Case notification panel [CDC.PHIN]"
              }
            ]
          }
        ],
        "code": {
          "coding": [
            {
              "code": "77967-8",
              "system": "http://loinc.org",
              "display": "Reporting county"
            }
          ]
        },
        "subject": {
          "reference": "Patient/HAICA-TC-Patient",
          "display": "HAICA-TC Example Patient"
        },
        "valueCodeableConcept": {
          "coding": [
            {
              "code": "13067",
              "system": "urn:oid:2.16.840.1.113883.6.93",
              "display": "Cobb"
            }
          ]
        }
      },
      "fullUrl": "Observation/HAICA-TC-CNP-Member2"
    },
    {
      "resource": {
        "resourceType": "Observation",
        "id": "HAICA-TC-CNP-Member3",
        "meta": {
          "profile": [
            "http://cbsig.chai.gatech.edu/StructureDefinition/cbs-cnp-member"
          ]
        },
        "status": "final",
        "category": [
          {
            "coding": [
              {
                "code": "78000-7",
                "system": "http://loinc.org",
                "display": "Case notification panel [CDC.PHIN]"
              }
            ]
          }
        ],
        "code": {
          "coding": [
            {
              "code": "77968-6",
              "system": "http://loinc.org",
              "display": "National reporting jurisdiction"
            }
          ]
        },
        "subject": {
          "reference": "Patient/HAICA-TC-Patient",
          "display": "HAICA-TC Example Patient"
        },
        "valueCodeableConcept": {
          "coding": [
            {
              "code": "13",
              "system": "urn:oid:2.16.840.1.113883.6.92",
              "display": "Georgia"
            }
          ]
        }
      },
      "fullUrl": "Observation/HAICA-TC-CNP-Member3"
    },
    {
      "resource": {
        "resourceType": "Observation",
        "id": "HAICA-TC-CNP-Member4",
        "meta": {
          "profile": [
            "http://cbsig.chai.gatech.edu/StructureDefinition/cbs-cnp-member"
          ]
        },
        "status": "final",
        "category": [
          {
            "coding": [
              {
                "code": "78000-7",
                "system": "http://loinc.org",
                "display": "Case notification panel [CDC.PHIN]"
              }
            ]
          }
        ],
        "code": {
          "coding": [
            {
              "code": "77989-2",
              "system": "http://loinc.org",
              "display": "Disease transmission mode"
            }
          ]
        },
        "subject": {
          "reference": "Patient/HAICA-TC-Patient",
          "display": "HAICA-TC Example Patient"
        },
        "valueCodeableConcept": {
          "coding": [
            {
              "code": "418375005",
              "system": "http://snomed.info/sct",
              "display": "Indeterminate disease transmission mode"
            }
          ]
        }
      },
      "fullUrl": "Observation/HAICA-TC-CNP-Member4"
    },
    {
      "resource": {
        "resourceType": "Observation",
        "id": "HAICA-TC-CNP-Member5",
        "meta": {
          "profile": [
            "http://cbsig.chai.gatech.edu/StructureDefinition/cbs-cnp-member"
          ]
        },
        "status": "final",
        "category": [
          {
            "coding": [
              {
                "code": "78000-7",
                "system": "http://loinc.org",
                "display": "Case notification panel [CDC.PHIN]"
              }
            ]
          }
        ],
        "code": {
          "coding": [
            {
              "code": "77996-7",
              "system": "http://loinc.org",
              "display": "Pregnancy status at time of illness or condition"
            }
          ]
        },
        "subject": {
          "reference": "Patient/HAICA-TC-Patient",
          "display": "HAICA-TC Example Patient"
        },
        "valueCodeableConcept": {
          "coding": [
            {
              "code": "N",
              "system": "http://terminology.hl7.org/CodeSystem/v2-0532"
            }
          ]
        }
      },
      "fullUrl": "Observation/HAICA-TC-CNP-Member5"
    },
    {
      "resource": {
        "resourceType": "Observation",
        "id": "HAICA-TC-CNP-Member6",
        "meta": {
          "profile": [
            "http://cbsig.chai.gatech.edu/StructureDefinition/cbs-cnp-member"
          ]
        },
        "status": "final",
        "category": [
          {
            "coding": [
              {
                "code": "78000-7",
                "system": "http://loinc.org",
                "display": "Case notification panel [CDC.PHIN]"
              }
            ]
          }
        ],
        "code": {
          "coding": [
            {
              "code": "77998-3",
              "system": "http://loinc.org",
              "display": "Age at time of case investigation"
            }
          ]
        },
        "subject": {
          "reference": "Patient/HAICA-TC-Patient",
          "display": "HAICA-TC Example Patient"
        },
        "valueQuantity": {
          "value": 78,
          "unit": "year",
          "system": "http://unitsofmeasure.org",
          "code": "a"
        }
      },
      "fullUrl": "Observation/HAICA-TC-CNP-Member6"
    },
    {
      "resource": {
        "resourceType": "Specimen",
        "id": "HAICA-TC-Specimen",
        "meta": {
          "profile": [
            "http://cbsig.chai.gatech.edu/StructureDefinition/cbs-specimen"
          ]
        },
        "subject": {
          "reference": "Patient/HAICA-TC-Patient",
          "display": "HAICA-TC Example Patient"
        },
        "identifier": [
          {
            "type": {
              "coding": [
                {
                  "code": "PLT687",
                  "system": "urn:oid:2.16.840.1.114222.4.5.232",
                  "display": "State Lab Specimen ID"
                }
              ]
            },
            "value": "IDR908765140"
          },
          {
            "type": {
              "coding": [
                {
                  "code": "LAB202",
                  "system": "urn:oid:2.16.840.1.114222.4.5.232",
                  "display": "Performing Laboratory Specimen ID"
                }
              ]
            },
            "value": "198374-9"
          }
        ],
        "type": {
          "coding": [
            {
              "code": "119297000",
              "system": "http://snomed.info/sct",
              "display": "Blood specimen"
            }
          ]
        },
        "collection": {
          "collectedDateTime": "2018-11-24"
        }
      },
      "fullUrl": "Specimen/HAICA-TC-Specimen"
    },
    {
      "resource": {
        "resourceType": "DiagnosticReport",
        "id": "HAICA-TC-Lab-DiagnosticReport",
        "meta": {
          "profile": [
            "http://cbsig.chai.gatech.edu/StructureDefinition/cbs-lab-diagnosticreport"
          ]
        },
        "category": [
          {
            "coding": [
              {
                "code": "LAB",
                "system": "http://terminology.hl7.org/CodeSystem/v2-0074"
              }
            ]
          }
        ],
        "status": "final",
        "code": {
          "coding": [
            {
              "code": "85069-3",
              "system": "http://loinc.org"
            }
          ]
        },
        "subject": {
          "reference": "Patient/HAICA-TC-Patient"
        },
        "specimen": [
          {
            "reference": "Specimen/HAICA-TC-Specimen"
          }
        ],
        "result": [
          {
            "reference": "Observation/HAICA-TC-Lab-Observation"
          }
        ]
      },
      "fullUrl": "DiagnosticReport/HAICA-TC-Lab-DiagnosticReport"
    },
    {
      "resource": {
        "resourceType": "Observation",
        "id": "HAICA-TC-Lab-Observation",
        "meta": {
          "profile": [
            "http://cbsig.chai.gatech.edu/StructureDefinition/cbs-lab-observation"
          ]
        },
        "status": "final",
        "category": [
          {
            "coding": [
              {
                "code": "laboratory",
                "system": "http://terminology.hl7.org/CodeSystem/observation-category"
              }
            ]
          }
        ],
        "code": {
          "coding": [
            {
              "code": "LAB723",
              "system": "urn:oid:2.16.840.1.114222.4.5.232",
              "display": "DNA Sequencing"
            }
          ]
        },
        "subject": {
          "reference": "Patient/HAICA-TC-Patient",
          "display": "HAICA-TC Example Patient"
        },
        "valueCodeableConcept": {
          "coding": [
            {
              "code": "10828004",
              "system": "http://snomed.info/sct",
              "display": "Positive"
            }
          ]
        },
        "method": {
          "coding": [
            {
              "code": "D1D2",
              "display": "D1/D2"
            }
          ]
        }
      },
      "fullUrl": "Observation/HAICA-TC-Lab-Observation"
    }
  ]
}
