{
  "resourceType": "Bundle",
  "id": "HAICA-TC-Document",
  "meta": {
    "profile": [
      "http://cbsig.chai.gatech.edu/StructureDefinition/cbs-document-bundle"
    ]
  },
  "identifier": {
    "type": {
      "coding": [
        {
          "system": "http://cbsig.chai.gatech.edu/CodeSystem/cbs-temp-code-system",
          "code": "Local-Record-ID",
          "display": "Local Record ID"
        }
      ],
      "text": "Local Record ID"
    },
    "system": "urn:temp:national-reporting-jurisdiction:48",
    "value": "C_auris_02"
  },
  "type": "document",
  "timestamp": "2018-11-26T00:00:00Z",
  "entry": [
    {
      "fullUrl": "Composition/HAICA-TC-Composition",
      "resource": {
        "resourceType": "Composition",
        "id": "HAICA-TC-Composition",
        "meta": {
          "profile": [
            "http://cbsig.chai.gatech.edu/StructureDefinition/cbs-composition"
          ]
        },
        "text": {
          "status": "generated",
          "div": "<div xmlns=\"http://www.w3.org/1999/xhtml\"><p><b>Generated Narrative</b></p><p><b>status</b>: final</p><p><b>type</b>: <span title=\"Codes: {http://loinc.org 55751-2}\">Public health Case report</span></p><p><b>date</b>: 2018-11-26</p><p><b>author</b>: <a href=\"#Organization_HAICA-TC-Reporting-Source\">See above (Organization/HAICA-TC-Reporting-Source)</a></p><p><b>title</b>: Case Based Surveillance Composition</p></div>"
        },
        "status": "final",
        "type": {
          "coding": [
            {
              "system": "http://loinc.org",
              "code": "55751-2"
            }
          ]
        },
        "subject": {
          "reference": "Patient/HAICA-TC-Patient"
        },
        "date": "2018-11-26",
        "author": [
          {
            "reference": "Organization/HAICA-TC-Reporting-Source"
          }
        ],
        "title": "Case Based Surveillance Composition",
        "section": [
          {
            "title": "Condition of Interest",
            "entry": [
              {
                "reference": "Condition/HAICA-TC-Condition"
              }
            ]
          },
          {
            "title": "Case Notification Panel",
            "entry": [
              {
                "reference": "Observation/HAICA-TC-CNP"
              }
            ],
            "section": [
              {
                "entry": [
                  {
                    "reference": "Observation/HAICA-TC-MMWR"
                  },
                  {
                    "reference": "Observation/HAICA-TC-CNP-Member1"
                  },
                  {
                    "reference": "Observation/HAICA-TC-CNP-Member2"
                  },
                  {
                    "reference": "Observation/HAICA-TC-CNP-Member3"
                  },
                  {
                    "reference": "Observation/HAICA-TC-CNP-Member4"
                  },
                  {
                    "reference": "Observation/HAICA-TC-CNP-Member5"
                  },
                  {
                    "reference": "Observation/HAICA-TC-CNP-Member6"
                  }
                ]
              }
            ]
          },
          {
            "title": "History of Encounters (Hospitalizations)",
            "entry": [
              {
                "reference": "Encounter/HAICA-TC-Hospitalization"
              }
            ]
          },
          {
            "title": "Reporting Entities",
            "entry": [
              {
                "reference": "Practitioner/HAICA-TC-Person-Reporting"
              },
              {
                "reference": "Organization/HAICA-TC-Reporting-Source"
              }
            ]
          },
          {
            "title": "Laboratory Related Resources",
            "entry": [
              {
                "reference": "DiagnosticReport/HAICA-TC-Lab-DiagnosticReport"
              },
              {
                "reference": "Observation/HAICA-TC-Lab-Observation"
              },
              {
                "reference": "Specimen/HAICA-TC-Specimen"
              }
            ]
          }
        ]
      }
    },
    {
      "fullUrl": "Patient/HAICA-TC-Patient",
      "resource": {
        "resourceType": "Patient",
        "id": "HAICA-TC-Patient",
        "meta": {
          "profile": [
            "http://cbsig.chai.gatech.edu/StructureDefinition/cbs-patient"
          ]
        },
        "text": {
          "status": "extensions",
          "div": "<div xmlns=\"http://www.w3.org/1999/xhtml\"><p><b>Generated Narrative</b></p><blockquote><p><b>Case Based Surveillance Race Extension</b></p><p><b>value</b>: <span title=\"{urn:oid:2.16.840.1.113883.6.238 2106-3}\">White</span></p><p><b>value</b>: <span title=\"{urn:oid:2.16.840.1.113883.6.238 2135-2}\">Hispanic or Latino</span></p><p><b>value</b>: Mixed</p></blockquote><blockquote><p><b>Case Based Surveillance Ethnicity Extension</b></p><p><b>value</b>: <span title=\"{http://terminology.hl7.org/CodeSystem/v2-0005 2135-2}\">2135-2</span></p><p><b>value</b>: Hispanic or Latino</p></blockquote><p><b>Case Based Surveillance Sex Assigned at Birth Extension</b>: <span title=\"Codes: {http://terminology.hl7.org/CodeSystem/v2-0001 F}\">Female</span></p><p><b>Birth Place</b>: USA </p><p><b>genderIdentity</b>: <span title=\"Codes: {http://hl7.org/fhir/gender-identity female}\">female</span></p><p><b>identifier</b>: Local Record ID: C_auris_02, Local Subject ID: C_auris_PAT_02</p><p><b>name</b>: Yyyyy, Bbbbb</p><p><b>gender</b>: female</p><p><b>birthDate</b>: 1940-01-01</p><p><b>address</b>: </p><ul><li>Georgia 30126 (HOME)</li><li>USA </li></ul></div>"
        },
        "extension": [
          {
            "extension": [
              {
                "url": "ombCategory",
                "valueCoding": {
                  "system": "urn:oid:2.16.840.1.113883.6.238",
                  "code": "2106-3",
                  "display": "White"
                }
              },
              {
                "url": "detailed",
                "valueCoding": {
                  "system": "urn:oid:2.16.840.1.113883.6.238",
                  "code": "2135-2",
                  "display": "Hispanic or Latino"
                }
              },
              {
                "url": "text",
                "valueString": "Mixed"
              }
            ],
            "url": "http://cbsig.chai.gatech.edu/StructureDefinition/cbs-race"
          },
          {
            "extension": [
              {
                "url": "ombCategory",
                "valueCoding": {
                  "system": "http://terminology.hl7.org/CodeSystem/v2-0005",
                  "code": "2135-2"
                }
              },
              {
                "url": "text",
                "valueString": "Hispanic or Latino"
              }
            ],
            "url": "http://cbsig.chai.gatech.edu/StructureDefinition/cbs-ethnicity"
          },
          {
            "url": "http://cbsig.chai.gatech.edu/StructureDefinition/cbs-birthsex",
            "valueCodeableConcept": {
              "coding": [
                {
                  "system": "http://terminology.hl7.org/CodeSystem/v2-0001",
                  "code": "F",
                  "display": "Female"
                }
              ]
            }
          },
          {
            "url": "http://hl7.org/fhir/StructureDefinition/patient-birthPlace",
            "valueAddress": {
              "country": "USA"
            }
          },
          {
            "url": "http://hl7.org/fhir/StructureDefinition/patient-genderIdentity",
            "valueCodeableConcept": {
              "coding": [
                {
                  "system": "http://hl7.org/fhir/gender-identity",
                  "code": "female"
                }
              ]
            }
          }
        ],
        "identifier": [
          {
            "type": {
              "coding": [
                {
                  "system": "http://cbsig.chai.gatech.edu/CodeSystem/cbs-temp-code-system",
                  "code": "Local-Record-ID",
                  "display": "Local Record ID"
                }
              ],
              "text": "Local Record ID"
            },
            "system": "urn:temp:national-reporting-jurisdiction:48",
            "value": "C_auris_02"
          },
          {
            "type": {
              "coding": [
                {
                  "system": "http://cbsig.chai.gatech.edu/CodeSystem/cbs-temp-code-system",
                  "code": "Local-Subject-ID",
                  "display": "Local Subject ID"
                }
              ],
              "text": "Local Subject ID"
            },
            "system": "urn:temp:national-reporting-jurisdiction:48",
            "value": "C_auris_PAT_02"
          }
        ],
        "name": [
          {
            "text": "Yyyyy, Bbbbb",
            "family": "Yyyyy",
            "given": [
              "Bbbbb"
            ]
          }
        ],
        "gender": "female",
        "birthDate": "1940-01-01",
        "address": [
          {
            "use": "home",
            "district": "Cobb",
            "state": "Georgia",
            "postalCode": "30126"
          },
          {
            "extension": [
              {
                "url": "http://cbsig.chai.gatech.edu/StructureDefinition/cbs-cdc-address-use",
                "valueCoding": {
                  "code": "Usual-Residence"
                }
              }
            ],
            "country": "USA"
          }
        ]
      }
    },
    {
      "fullUrl": "Condition/HAICA-TC-Condition",
      "resource": {
        "resourceType": "Condition",
        "id": "HAICA-TC-Condition",
        "meta": {
          "profile": [
            "http://cbsig.chai.gatech.edu/StructureDefinition/cbs-condition"
          ]
        },
        "text": {
          "status": "extensions",
          "div": "<div xmlns=\"http://www.w3.org/1999/xhtml\"><p><b>Generated Narrative</b></p><p><b>Case Based Surveillance Case Class Status</b>: <span title=\"Codes: {http://snomed.info/sct 410605003}\">Confirmed present</span></p><p><b>code</b>: <span title=\"Codes: {urn:oid:2.16.840.1.114222.4.5.277 50263}\">Candida auris, clinical</span></p><p><b>subject</b>: <a href=\"#Patient_HAICA-TC-Patient\">HAI-CA TC Example Patient. Generated Summary: Local Record ID: C_auris_02, Local Subject ID: C_auris_PAT_02; Yyyyy, Bbbbb; gender: female; birthDate: 1940-01-01</a></p><p><b>onset</b>: 2018-11-22</p></div>"
        },
        "extension": [
          {
            "url": "http://cbsig.chai.gatech.edu/StructureDefinition/cbs-case-class-status",
            "valueCodeableConcept": {
              "coding": [
                {
                  "system": "http://snomed.info/sct",
                  "code": "410605003",
                  "display": "Confirmed present"
                }
              ]
            }
          }
        ],
        "code": {
          "coding": [
            {
              "system": "urn:oid:2.16.840.1.114222.4.5.277",
              "code": "50263",
              "display": "Candida auris, clinical"
            }
          ]
        },
        "subject": {
          "reference": "Patient/HAICA-TC-Patient",
          "display": "HAI-CA TC Example Patient"
        },
        "onsetDateTime": "2018-11-22"
      }
    },
    {
      "fullUrl": "Encounter/HAICA-TC-Hospitalization",
      "resource": {
        "resourceType": "Encounter",
        "id": "HAICA-TC-Hospitalization",
        "meta": {
          "profile": [
            "http://cbsig.chai.gatech.edu/StructureDefinition/cbs-hospitalization"
          ]
        },
        "text": {
          "status": "generated",
          "div": "<div xmlns=\"http://www.w3.org/1999/xhtml\"><p><b>Generated Narrative</b></p><p><b>status</b>: unknown</p><p><b>class</b>: <span title=\"{http://terminology.hl7.org/CodeSystem/v3-ActCode IMP}\">inpatient encounter</span></p><p><b>subject</b>: <a href=\"#Patient_HAICA-TC-Patient\">HAI-CA TC Example Patient. Generated Summary: Local Record ID: C_auris_02, Local Subject ID: C_auris_PAT_02; Yyyyy, Bbbbb; gender: female; birthDate: 1940-01-01</a></p><p><b>period</b>: 2018-11-24 --&gt; (ongoing)</p><h3>Diagnoses</h3><table class=\"grid\"><tr><td>-</td><td><b>Condition</b></td></tr><tr><td>*</td><td><a href=\"#Condition_HAICA-TC-Condition\">HAI-CA TC Condition of Interest. Generated Summary: <span title=\"Codes: {urn:oid:2.16.840.1.114222.4.5.277 50263}\">Candida auris, clinical</span>; onset: 2018-11-22</a></td></tr></table></div>"
        },
        "status": "unknown",
        "class": {
          "system": "http://terminology.hl7.org/CodeSystem/v3-ActCode",
          "code": "IMP"
        },
        "subject": {
          "reference": "Patient/HAICA-TC-Patient",
          "display": "HAI-CA TC Example Patient"
        },
        "period": {
          "start": "2018-11-24"
        },
        "diagnosis": [
          {
            "condition": {
              "reference": "Condition/HAICA-TC-Condition",
              "display": "HAI-CA TC Condition of Interest"
            }
          }
        ]
      }
    },
    {
      "fullUrl": "Practitioner/HAICA-TC-Person-Reporting",
      "resource": {
        "resourceType": "Practitioner",
        "id": "HAICA-TC-Person-Reporting",
        "meta": {
          "profile": [
            "http://cbsig.chai.gatech.edu/StructureDefinition/cbs-person-reporting-to-cdc"
          ]
        },
        "text": {
          "status": "generated",
          "div": "<div xmlns=\"http://www.w3.org/1999/xhtml\"><p><b>Generated Narrative</b></p><p><b>name</b>: von Count, Count</p><p><b>telecom</b>: <a href=\"mailto:count_voncount@gadph.gov\">count_voncount@gadph.gov</a></p></div>"
        },
        "name": [
          {
            "text": "von Count, Count",
            "family": "von Count",
            "given": [
              "Count"
            ]
          }
        ],
        "telecom": [
          {
            "system": "email",
            "value": "count_voncount@gadph.gov"
          }
        ]
      }
    },
    {
      "fullUrl": "Organization/HAICA-TC-Reporting-Source",
      "resource": {
        "resourceType": "Organization",
        "id": "HAICA-TC-Reporting-Source",
        "meta": {
          "profile": [
            "http://cbsig.chai.gatech.edu/StructureDefinition/cbs-reporting-source-organization"
          ]
        },
        "text": {
          "status": "generated",
          "div": "<div xmlns=\"http://www.w3.org/1999/xhtml\"><p><b>Generated Narrative</b></p><p><b>type</b>: <span title=\"Codes: {http://terminology.hl7.org/CodeSystem/v3-NullFlavor UNK}\">Unknown</span></p><p><b>name</b>: Reporting Source</p></div>"
        },
        "type": [
          {
            "coding": [
              {
                "system": "http://terminology.hl7.org/CodeSystem/v3-NullFlavor",
                "code": "UNK",
                "display": "Unknown"
              }
            ]
          }
        ],
        "name": "Reporting Source"
      }
    },
    {
      "fullUrl": "Observation/HAICA-TC-CNP",
      "resource": {
        "resourceType": "Observation",
        "id": "HAICA-TC-CNP",
        "meta": {
          "profile": [
            "http://cbsig.chai.gatech.edu/StructureDefinition/cbs-case-notification-panel"
          ]
        },
        "text": {
          "status": "generated",
          "div": "<div xmlns=\"http://www.w3.org/1999/xhtml\"><p><b>Generated Narrative</b></p><p></p><p><b>category</b>: <span title=\"Codes: {http://loinc.org 78000-7}\">Case notification panel [CDC.PHIN]</span></p><p><b>code</b>: <span title=\"Codes: {http://loinc.org 78000-7}\">Case notification panel [CDC.PHIN]</span></p><p><b>subject</b>: <a href=\"#Patient_HAICA-TC-Patient\">HAICA-TC Example Patient. Generated Summary: Local Record ID: C_auris_02, Local Subject ID: C_auris_PAT_02; Yyyyy, Bbbbb; gender: female; birthDate: 1940-01-01</a></p><p><b>hasMember</b>: </p><ul><li><a href=\"#Observation_HAICA-TC-MMWR\">See above (Observation/HAICA-TC-MMWR)</a></li><li><a href=\"#Observation_HAICA-TC-CNP-Member1\">See above (Observation/HAICA-TC-CNP-Member1)</a></li><li><a href=\"#Observation_HAICA-TC-CNP-Member2\">See above (Observation/HAICA-TC-CNP-Member2)</a></li><li><a href=\"#Observation_HAICA-TC-CNP-Member3\">See above (Observation/HAICA-TC-CNP-Member3)</a></li><li><a href=\"#Observation_HAICA-TC-CNP-Member4\">See above (Observation/HAICA-TC-CNP-Member4)</a></li><li><a href=\"#Observation_HAICA-TC-CNP-Member5\">See above (Observation/HAICA-TC-CNP-Member5)</a></li><li><a href=\"#Observation_HAICA-TC-CNP-Member6\">See above (Observation/HAICA-TC-CNP-Member6)</a></li></ul></div>"
        },
        "status": "final",
        "category": [
          {
            "coding": [
              {
                "system": "http://loinc.org",
                "code": "78000-7",
                "display": "Case notification panel [CDC.PHIN]"
              }
            ]
          }
        ],
        "code": {
          "coding": [
            {
              "system": "http://loinc.org",
              "code": "78000-7",
              "display": "Case notification panel [CDC.PHIN]"
            }
          ]
        },
        "subject": {
          "reference": "Patient/HAICA-TC-Patient",
          "display": "HAICA-TC Example Patient"
        },
        "hasMember": [
          {
            "reference": "Observation/HAICA-TC-MMWR"
          },
          {
            "reference": "Observation/HAICA-TC-CNP-Member1"
          },
          {
            "reference": "Observation/HAICA-TC-CNP-Member2"
          },
          {
            "reference": "Observation/HAICA-TC-CNP-Member3"
          },
          {
            "reference": "Observation/HAICA-TC-CNP-Member4"
          },
          {
            "reference": "Observation/HAICA-TC-CNP-Member5"
          },
          {
            "reference": "Observation/HAICA-TC-CNP-Member6"
          }
        ]
      }
    },
    {
      "fullUrl": "Observation/HAICA-TC-MMWR",
      "resource": {
        "resourceType": "Observation",
        "id": "HAICA-TC-MMWR",
        "meta": {
          "profile": [
            "http://cbsig.chai.gatech.edu/StructureDefinition/cbs-mmwr"
          ]
        },
        "text": {
          "status": "generated",
          "div": "<div xmlns=\"http://www.w3.org/1999/xhtml\"><p><b>Generated Narrative</b></p><p></p><p><b>category</b>: <span title=\"Codes: {http://loinc.org 78000-7}\">Case notification panel [CDC.PHIN]</span></p><p><b>code</b>: <span title=\"Codes: {http://cbsig.chai.gatech.edu/CodeSystem/cbs-temp-code-system MMWR}\">MMWR Week/Year</span></p><p><b>subject</b>: <a href=\"#Patient_HAICA-TC-Patient\">HAI-CA TC Example Patient. Generated Summary: Local Record ID: C_auris_02, Local Subject ID: C_auris_PAT_02; Yyyyy, Bbbbb; gender: female; birthDate: 1940-01-01</a></p><blockquote><p><b>component</b></p><p><b>code</b>: <span title=\"Codes: {http://loinc.org 77991-8}\">MMWR Week [CDC.PHIN]</span></p><p><b>value</b>: 48</p></blockquote><blockquote><p><b>component</b></p><p><b>code</b>: <span title=\"Codes: {http://loinc.org 77992-6}\">MMWR Year [CDC.PHIN]</span></p><p><b>value</b>: 2018</p></blockquote></div>"
        },
        "status": "final",
        "category": [
          {
            "coding": [
              {
                "system": "http://loinc.org",
                "code": "78000-7",
                "display": "Case notification panel [CDC.PHIN]"
              }
            ]
          }
        ],
        "code": {
          "coding": [
            {
              "system": "http://cbsig.chai.gatech.edu/CodeSystem/cbs-temp-code-system",
              "code": "MMWR"
            }
          ]
        },
        "subject": {
          "reference": "Patient/HAICA-TC-Patient",
          "display": "HAI-CA TC Example Patient"
        },
        "component": [
          {
            "code": {
              "coding": [
                {
                  "system": "http://loinc.org",
                  "code": "77991-8"
                }
              ]
            },
            "valueInteger": 48
          },
          {
            "code": {
              "coding": [
                {
                  "system": "http://loinc.org",
                  "code": "77992-6"
                }
              ]
            },
            "valueInteger": 2018
          }
        ]
      }
    },
    {
      "fullUrl": "Observation/HAICA-TC-CNP-Member1",
      "resource": {
        "resourceType": "Observation",
        "id": "HAICA-TC-CNP-Member1",
        "meta": {
          "profile": [
            "http://cbsig.chai.gatech.edu/StructureDefinition/cbs-cnp-member"
          ]
        },
        "text": {
          "status": "generated",
          "div": "<div xmlns=\"http://www.w3.org/1999/xhtml\"><p><b>Generated Narrative</b></p><p></p><p><b>category</b>: <span title=\"Codes: {http://loinc.org 78000-7}\">Case notification panel [CDC.PHIN]</span></p><p><b>code</b>: <span title=\"Codes: {http://loinc.org 77966-0}\">Reporting state</span></p><p><b>subject</b>: <a href=\"#Patient_HAICA-TC-Patient\">HAICA-TC Example Patient. Generated Summary: Local Record ID: C_auris_02, Local Subject ID: C_auris_PAT_02; Yyyyy, Bbbbb; gender: female; birthDate: 1940-01-01</a></p><p><b>value</b>: <span title=\"Codes: {urn:oid:2.16.840.1.113883.6.92 13}\">Georgia</span></p></div>"
        },
        "status": "final",
        "category": [
          {
            "coding": [
              {
                "system": "http://loinc.org",
                "code": "78000-7",
                "display": "Case notification panel [CDC.PHIN]"
              }
            ]
          }
        ],
        "code": {
          "coding": [
            {
              "system": "http://loinc.org",
              "code": "77966-0",
              "display": "Reporting state"
            }
          ]
        },
        "subject": {
          "reference": "Patient/HAICA-TC-Patient",
          "display": "HAICA-TC Example Patient"
        },
        "valueCodeableConcept": {
          "coding": [
            {
              "system": "urn:oid:2.16.840.1.113883.6.92",
              "code": "13",
              "display": "Georgia"
            }
          ]
        }
      }
    },
    {
      "fullUrl": "Observation/HAICA-TC-CNP-Member2",
      "resource": {
        "resourceType": "Observation",
        "id": "HAICA-TC-CNP-Member2",
        "meta": {
          "profile": [
            "http://cbsig.chai.gatech.edu/StructureDefinition/cbs-cnp-member"
          ]
        },
        "text": {
          "status": "generated",
          "div": "<div xmlns=\"http://www.w3.org/1999/xhtml\"><p><b>Generated Narrative</b></p><p></p><p><b>category</b>: <span title=\"Codes: {http://loinc.org 78000-7}\">Case notification panel [CDC.PHIN]</span></p><p><b>code</b>: <span title=\"Codes: {http://loinc.org 77967-8}\">Reporting county</span></p><p><b>subject</b>: <a href=\"#Patient_HAICA-TC-Patient\">HAICA-TC Example Patient. Generated Summary: Local Record ID: C_auris_02, Local Subject ID: C_auris_PAT_02; Yyyyy, Bbbbb; gender: female; birthDate: 1940-01-01</a></p><p><b>value</b>: <span title=\"Codes: {urn:oid:2.16.840.1.113883.6.93 13067}\">Cobb</span></p></div>"
        },
        "status": "final",
        "category": [
          {
            "coding": [
              {
                "system": "http://loinc.org",
                "code": "78000-7",
                "display": "Case notification panel [CDC.PHIN]"
              }
            ]
          }
        ],
        "code": {
          "coding": [
            {
              "system": "http://loinc.org",
              "code": "77967-8",
              "display": "Reporting county"
            }
          ]
        },
        "subject": {
          "reference": "Patient/HAICA-TC-Patient",
          "display": "HAICA-TC Example Patient"
        },
        "valueCodeableConcept": {
          "coding": [
            {
              "system": "urn:oid:2.16.840.1.113883.6.93",
              "code": "13067",
              "display": "Cobb"
            }
          ]
        }
      }
    },
    {
      "fullUrl": "Observation/HAICA-TC-CNP-Member3",
      "resource": {
        "resourceType": "Observation",
        "id": "HAICA-TC-CNP-Member3",
        "meta": {
          "profile": [
            "http://cbsig.chai.gatech.edu/StructureDefinition/cbs-cnp-member"
          ]
        },
        "text": {
          "status": "generated",
          "div": "<div xmlns=\"http://www.w3.org/1999/xhtml\"><p><b>Generated Narrative</b></p><p></p><p><b>category</b>: <span title=\"Codes: {http://loinc.org 78000-7}\">Case notification panel [CDC.PHIN]</span></p><p><b>code</b>: <span title=\"Codes: {http://loinc.org 77968-6}\">National reporting jurisdiction</span></p><p><b>subject</b>: <a href=\"#Patient_HAICA-TC-Patient\">HAICA-TC Example Patient. Generated Summary: Local Record ID: C_auris_02, Local Subject ID: C_auris_PAT_02; Yyyyy, Bbbbb; gender: female; birthDate: 1940-01-01</a></p><p><b>value</b>: <span title=\"Codes: {urn:oid:2.16.840.1.113883.6.92 13}\">Georgia</span></p></div>"
        },
        "status": "final",
        "category": [
          {
            "coding": [
              {
                "system": "http://loinc.org",
                "code": "78000-7",
                "display": "Case notification panel [CDC.PHIN]"
              }
            ]
          }
        ],
        "code": {
          "coding": [
            {
              "system": "http://loinc.org",
              "code": "77968-6",
              "display": "National reporting jurisdiction"
            }
          ]
        },
        "subject": {
          "reference": "Patient/HAICA-TC-Patient",
          "display": "HAICA-TC Example Patient"
        },
        "valueCodeableConcept": {
          "coding": [
            {
              "system": "urn:oid:2.16.840.1.113883.6.92",
              "code": "13",
              "display": "Georgia"
            }
          ]
        }
      }
    },
    {
      "fullUrl": "Observation/HAICA-TC-CNP-Member4",
      "resource": {
        "resourceType": "Observation",
        "id": "HAICA-TC-CNP-Member4",
        "meta": {
          "profile": [
            "http://cbsig.chai.gatech.edu/StructureDefinition/cbs-cnp-member"
          ]
        },
        "text": {
          "status": "generated",
          "div": "<div xmlns=\"http://www.w3.org/1999/xhtml\"><p><b>Generated Narrative</b></p><p></p><p><b>category</b>: <span title=\"Codes: {http://loinc.org 78000-7}\">Case notification panel [CDC.PHIN]</span></p><p><b>code</b>: <span title=\"Codes: {http://loinc.org 77989-2}\">Disease transmission mode</span></p><p><b>subject</b>: <a href=\"#Patient_HAICA-TC-Patient\">HAICA-TC Example Patient. Generated Summary: Local Record ID: C_auris_02, Local Subject ID: C_auris_PAT_02; Yyyyy, Bbbbb; gender: female; birthDate: 1940-01-01</a></p><p><b>value</b>: <span title=\"Codes: {http://snomed.info/sct 418375005}\">Indeterminate disease transmission mode</span></p></div>"
        },
        "status": "final",
        "category": [
          {
            "coding": [
              {
                "system": "http://loinc.org",
                "code": "78000-7",
                "display": "Case notification panel [CDC.PHIN]"
              }
            ]
          }
        ],
        "code": {
          "coding": [
            {
              "system": "http://loinc.org",
              "code": "77989-2",
              "display": "Disease transmission mode"
            }
          ]
        },
        "subject": {
          "reference": "Patient/HAICA-TC-Patient",
          "display": "HAICA-TC Example Patient"
        },
        "valueCodeableConcept": {
          "coding": [
            {
              "system": "http://snomed.info/sct",
              "code": "418375005",
              "display": "Indeterminate disease transmission mode"
            }
          ]
        }
      }
    },
    {
      "fullUrl": "Observation/HAICA-TC-CNP-Member5",
      "resource": {
        "resourceType": "Observation",
        "id": "HAICA-TC-CNP-Member5",
        "meta": {
          "profile": [
            "http://cbsig.chai.gatech.edu/StructureDefinition/cbs-cnp-member"
          ]
        },
        "text": {
          "status": "generated",
          "div": "<div xmlns=\"http://www.w3.org/1999/xhtml\"><p><b>Generated Narrative</b></p><p></p><p><b>category</b>: <span title=\"Codes: {http://loinc.org 78000-7}\">Case notification panel [CDC.PHIN]</span></p><p><b>code</b>: <span title=\"Codes: {http://loinc.org 77996-7}\">Pregnancy status at time of illness or condition</span></p><p><b>subject</b>: <a href=\"#Patient_HAICA-TC-Patient\">HAICA-TC Example Patient. Generated Summary: Local Record ID: C_auris_02, Local Subject ID: C_auris_PAT_02; Yyyyy, Bbbbb; gender: female; birthDate: 1940-01-01</a></p><p><b>value</b>: <span title=\"Codes: {http://terminology.hl7.org/CodeSystem/v2-0532 N}\">No</span></p></div>"
        },
        "status": "final",
        "category": [
          {
            "coding": [
              {
                "system": "http://loinc.org",
                "code": "78000-7",
                "display": "Case notification panel [CDC.PHIN]"
              }
            ]
          }
        ],
        "code": {
          "coding": [
            {
              "system": "http://loinc.org",
              "code": "77996-7",
              "display": "Pregnancy status at time of illness or condition"
            }
          ]
        },
        "subject": {
          "reference": "Patient/HAICA-TC-Patient",
          "display": "HAICA-TC Example Patient"
        },
        "valueCodeableConcept": {
          "coding": [
            {
              "system": "http://terminology.hl7.org/CodeSystem/v2-0532",
              "code": "N"
            }
          ]
        }
      }
    },
    {
      "fullUrl": "Observation/HAICA-TC-CNP-Member6",
      "resource": {
        "resourceType": "Observation",
        "id": "HAICA-TC-CNP-Member6",
        "meta": {
          "profile": [
            "http://cbsig.chai.gatech.edu/StructureDefinition/cbs-cnp-member"
          ]
        },
        "text": {
          "status": "generated",
          "div": "<div xmlns=\"http://www.w3.org/1999/xhtml\"><p><b>Generated Narrative</b></p><p></p><p><b>category</b>: <span title=\"Codes: {http://loinc.org 78000-7}\">Case notification panel [CDC.PHIN]</span></p><p><b>code</b>: <span title=\"Codes: {http://loinc.org 77998-3}\">Age at time of case investigation</span></p><p><b>subject</b>: <a href=\"#Patient_HAICA-TC-Patient\">HAICA-TC Example Patient. Generated Summary: Local Record ID: C_auris_02, Local Subject ID: C_auris_PAT_02; Yyyyy, Bbbbb; gender: female; birthDate: 1940-01-01</a></p><p><b>value</b>: 78 year</p></div>"
        },
        "status": "final",
        "category": [
          {
            "coding": [
              {
                "system": "http://loinc.org",
                "code": "78000-7",
                "display": "Case notification panel [CDC.PHIN]"
              }
            ]
          }
        ],
        "code": {
          "coding": [
            {
              "system": "http://loinc.org",
              "code": "77998-3",
              "display": "Age at time of case investigation"
            }
          ]
        },
        "subject": {
          "reference": "Patient/HAICA-TC-Patient",
          "display": "HAICA-TC Example Patient"
        },
        "valueQuantity": {
          "value": 78,
          "unit": "year",
          "system": "http://unitsofmeasure.org",
          "code": "a"
        }
      }
    },
    {
      "fullUrl": "Specimen/HAICA-TC-Specimen",
      "resource": {
        "resourceType": "Specimen",
        "id": "HAICA-TC-Specimen",
        "meta": {
          "profile": [
            "http://cbsig.chai.gatech.edu/StructureDefinition/cbs-specimen"
          ]
        },
        "text": {
          "status": "generated",
          "div": "<div xmlns=\"http://www.w3.org/1999/xhtml\"><p><b>Generated Narrative</b></p><p><b>identifier</b>: State Lab Specimen ID: IDR908765140, Performing Laboratory Specimen ID: 198374-9</p><p><b>type</b>: <span title=\"Codes: {http://snomed.info/sct 119297000}\">Blood specimen</span></p><p><b>subject</b>: <a href=\"#Patient_HAICA-TC-Patient\">HAICA-TC Example Patient. Generated Summary: Local Record ID: C_auris_02, Local Subject ID: C_auris_PAT_02; Yyyyy, Bbbbb; gender: female; birthDate: 1940-01-01</a></p><h3>Collections</h3><table class=\"grid\"><tr><td>-</td><td><b>Collected[x]</b></td></tr><tr><td>*</td><td>2018-11-24</td></tr></table></div>"
        },
        "identifier": [
          {
            "type": {
              "coding": [
                {
                  "system": "urn:oid:2.16.840.1.114222.4.5.232",
                  "code": "PLT687",
                  "display": "State Lab Specimen ID"
                }
              ]
            },
            "value": "IDR908765140"
          },
          {
            "type": {
              "coding": [
                {
                  "system": "urn:oid:2.16.840.1.114222.4.5.232",
                  "code": "LAB202",
                  "display": "Performing Laboratory Specimen ID"
                }
              ]
            },
            "value": "198374-9"
          }
        ],
        "type": {
          "coding": [
            {
              "system": "http://snomed.info/sct",
              "code": "119297000",
              "display": "Blood specimen"
            }
          ]
        },
        "subject": {
          "reference": "Patient/HAICA-TC-Patient",
          "display": "HAICA-TC Example Patient"
        },
        "collection": {
          "collectedDateTime": "2018-11-24"
        }
      }
    },
    {
      "fullUrl": "DiagnosticReport/HAICA-TC-Lab-DiagnosticReport",
      "resource": {
        "resourceType": "DiagnosticReport",
        "id": "HAICA-TC-Lab-DiagnosticReport",
        "meta": {
          "profile": [
            "http://cbsig.chai.gatech.edu/StructureDefinition/cbs-lab-diagnosticreport"
          ]
        },
        "text": {
          "status": "generated",
          "div": "<div xmlns=\"http://www.w3.org/1999/xhtml\"><p><b>Generated Narrative</b></p><p><b>status</b>: final</p><p><b>category</b>: <span title=\"Codes: {http://terminology.hl7.org/CodeSystem/v2-0074 LAB}\">Laboratory</span></p><p><b>code</b>: <span title=\"Codes: {http://loinc.org 85069-3}\">Lab test method [Type]</span></p><p><b>subject</b>: <a href=\"#Patient_HAICA-TC-Patient\">See above (Patient/HAICA-TC-Patient)</a></p><p><b>specimen</b>: <a href=\"#Specimen_HAICA-TC-Specimen\">See above (Specimen/HAICA-TC-Specimen)</a></p><p><b>result</b>: <a href=\"#Observation_HAICA-TC-Lab-Observation\">See above (Observation/HAICA-TC-Lab-Observation)</a></p></div>"
        },
        "status": "final",
        "category": [
          {
            "coding": [
              {
                "system": "http://terminology.hl7.org/CodeSystem/v2-0074",
                "code": "LAB"
              }
            ]
          }
        ],
        "code": {
          "coding": [
            {
              "system": "http://loinc.org",
              "code": "85069-3"
            }
          ]
        },
        "subject": {
          "reference": "Patient/HAICA-TC-Patient"
        },
        "specimen": [
          {
            "reference": "Specimen/HAICA-TC-Specimen"
          }
        ],
        "result": [
          {
            "reference": "Observation/HAICA-TC-Lab-Observation"
          }
        ]
      }
    },
    {
      "fullUrl": "Observation/HAICA-TC-Lab-Observation",
      "resource": {
        "resourceType": "Observation",
        "id": "HAICA-TC-Lab-Observation",
        "meta": {
          "profile": [
            "http://cbsig.chai.gatech.edu/StructureDefinition/cbs-lab-observation"
          ]
        },
        "text": {
          "status": "generated",
          "div": "<div xmlns=\"http://www.w3.org/1999/xhtml\"><p><b>Generated Narrative</b></p><p></p><p><b>category</b>: <span title=\"Codes: {http://terminology.hl7.org/CodeSystem/observation-category laboratory}\">Laboratory</span></p><p><b>code</b>: <span title=\"Codes: {urn:oid:2.16.840.1.114222.4.5.232 LAB723}\">DNA Sequencing</span></p><p><b>subject</b>: <a href=\"#Patient_HAICA-TC-Patient\">HAICA-TC Example Patient. Generated Summary: Local Record ID: C_auris_02, Local Subject ID: C_auris_PAT_02; Yyyyy, Bbbbb; gender: female; birthDate: 1940-01-01</a></p><p><b>value</b>: <span title=\"Codes: {http://snomed.info/sct 10828004}\">Positive</span></p><p><b>method</b>: <span title=\"Codes: \">D1/D2</span></p></div>"
        },
        "status": "final",
        "category": [
          {
            "coding": [
              {
                "system": "http://terminology.hl7.org/CodeSystem/observation-category",
                "code": "laboratory"
              }
            ]
          }
        ],
        "code": {
          "coding": [
            {
              "system": "urn:oid:2.16.840.1.114222.4.5.232",
              "code": "LAB723",
              "display": "DNA Sequencing"
            }
          ]
        },
        "subject": {
          "reference": "Patient/HAICA-TC-Patient",
          "display": "HAICA-TC Example Patient"
        },
        "valueCodeableConcept": {
          "coding": [
            {
              "system": "http://snomed.info/sct",
              "code": "10828004",
              "display": "Positive"
            }
          ]
        },
        "method": {
          "coding": [
            {
              "code": "D1D2",
              "display": "D1/D2"
            }
          ]
        }
      }
    }
  ]
}