<?xml version="1.0" encoding="UTF-8"?>

<Bundle xmlns="http://hl7.org/fhir">
  <id value="GenV2-TC-Document"/>
  <meta>
    <profile value="http://cbsig.chai.gatech.edu/StructureDefinition/cbs-document-bundle"/>
  </meta>
  <identifier>
    <type>
      <coding>
        <system value="http://cbsig.chai.gatech.edu/CodeSystem/cbs-temp-code-system"/>
        <code value="Local-Record-ID"/>
        <display value="Local Record ID"/>
      </coding>
      <text value="Local Record ID"/>
    </type>
    <system value="urn:temp:national-reporting-jurisdiction:48"/>
    <value value="GenV2_TC01_Record"/>
  </identifier>
  <type value="document"/>
  <timestamp value="2014-03-02T00:00:00Z"/>
  <entry>
    <fullUrl value="Composition/GenV2-TC-Composition"/>
    <resource>
      <Composition>
        <id value="GenV2-TC-Composition"/>
        <meta>
          <profile value="http://cbsig.chai.gatech.edu/StructureDefinition/cbs-composition"/>
        </meta>
        <text>
          <status value="generated"/><div xmlns="http://www.w3.org/1999/xhtml"><p><b>Generated Narrative</b></p><p><b>status</b>: final</p><p><b>type</b>: <span title="Codes: {http://loinc.org 55751-2}">Public health Case report</span></p><p><b>date</b>: 2014-03-02</p><p><b>author</b>: <a href="#Organization_GenV2-TC-Reporting-Source">See above (Organization/GenV2-TC-Reporting-Source)</a></p><p><b>title</b>: Case Based Surveillance Composition</p></div>
        </text>
        <status value="final"/>
        <type>
          <coding>
            <system value="http://loinc.org"/>
            <code value="55751-2"/>
          </coding>
        </type>
        <subject>
          <reference value="Patient/GenV2-TC-Patient"/>
        </subject>
        <date value="2014-03-02"/>
        <author>
          <reference value="Organization/GenV2-TC-Reporting-Source"/>
        </author>
        <title value="Case Based Surveillance Composition"/>
        <section>
          <title value="Condition of Interest"/>
          <entry>
            <reference value="Condition/GenV2-TC-Condition"/>
          </entry>
        </section>
        <section>
          <title value="Case Notification Panel"/>
          <entry>
            <reference value="Observation/GenV2-TC-CNP"/>
          </entry>
          <section>
            <entry>
              <reference value="Observation/GenV2-TC-MMWR"/>
            </entry>
            <entry>
              <reference value="Observation/GenV2-TC-Exposure"/>
            </entry>
            <entry>
              <reference value="Observation/GenV2-TC-CNP-Member1"/>
            </entry>
            <entry>
              <reference value="Observation/GenV2-TC-CNP-Member2"/>
            </entry>
            <entry>
              <reference value="Observation/GenV2-TC-CNP-Member3"/>
            </entry>
            <entry>
              <reference value="Observation/GenV2-TC-CNP-Member4"/>
            </entry>
            <entry>
              <reference value="Observation/GenV2-TC-CNP-Member5"/>
            </entry>
            <entry>
              <reference value="Observation/GenV2-TC-CNP-Member6"/>
            </entry>
            <entry>
              <reference value="Observation/GenV2-TC-CNP-Member7"/>
            </entry>
            <entry>
              <reference value="Observation/GenV2-TC-CNP-Member8"/>
            </entry>
            <entry>
              <reference value="Observation/GenV2-TC-CNP-Member9"/>
            </entry>
            <entry>
              <reference value="Observation/GenV2-TC-CNP-Member10"/>
            </entry>
            <entry>
              <reference value="Observation/GenV2-TC-CNP-Member11"/>
            </entry>
            <entry>
              <reference value="Observation/GenV2-TC-CNP-Member12"/>
            </entry>
            <entry>
              <reference value="Observation/GenV2-TC-CNP-Member13"/>
            </entry>
            <entry>
              <reference value="Observation/GenV2-TC-CNP-Member14"/>
            </entry>
            <entry>
              <reference value="Observation/GenV2-TC-CNP-Member15"/>
            </entry>
          </section>
        </section>
        <section>
          <title value="History of Encounters (Hospitalizations)"/>
          <entry>
            <reference value="Encounter/GenV2-TC-Hospitalization"/>
          </entry>
        </section>
        <section>
          <title value="Reporting Entities"/>
          <entry>
            <reference value="Practitioner/GenV2-TC-Person-Reporting"/>
          </entry>
          <entry>
            <reference value="Organization/GenV2-TC-Reporting-Source"/>
          </entry>
        </section>
      </Composition>
    </resource>
  </entry>
  <entry>
    <fullUrl value="Patient/GenV2-TC-Patient"/>
    <resource>
      <Patient>
        <id value="GenV2-TC-Patient"/>
        <meta>
          <profile value="http://cbsig.chai.gatech.edu/StructureDefinition/cbs-patient"/>
        </meta>
        <text>
          <status value="extensions"/><div xmlns="http://www.w3.org/1999/xhtml"><p><b>Generated Narrative</b></p><blockquote><p><b>Case Based Surveillance Race Extension</b></p><p><b>value</b>: <span title="{http://terminology.hl7.org/CodeSystem/v2-0005 2106-3}">White</span></p><p><b>value</b>: <span title="{urn:oid:2.16.840.1.113883.6.238 1010-8}">Apache</span></p><p><b>value</b>: Apache</p><p><b>value</b>: Mixed</p></blockquote><blockquote><p><b>Case Based Surveillance Ethnicity Extension</b></p><p><b>value</b>: <span title="{http://terminology.hl7.org/CodeSystem/v2-0005 2186-5}">Not Hispanic or Latino</span></p><p><b>value</b>: Not Hispanic or Latino</p></blockquote><p><b>Case Based Surveillance Sex Assigned at Birth Extension</b>: <span title="Codes: {http://terminology.hl7.org/CodeSystem/v2-0001 F}">Female</span></p><p><b>Birth Place</b>: USA </p><p><b>identifier</b>: Local Record ID: GenV2_TC01_Record, Local Subject ID: GenV2_TC01_Subject, Legacy Case Identifier: 48432148S012014, State Case Identifier: TX4321</p><p><b>name</b>: Zzzzz, Aaaaa</p><p><b>gender</b>: female</p><p><b>birthDate</b>: 1964-05-02</p><p><b>deceased</b>: 2014-03-02</p><p><b>address</b>: </p><ul><li>Texas 77018 (HOME)</li><li>USA </li></ul></div>
        </text>
        <extension url="http://cbsig.chai.gatech.edu/StructureDefinition/cbs-race">
          <extension url="ombCategory">
            <valueCoding>
              <system value="http://terminology.hl7.org/CodeSystem/v2-0005"/>
              <code value="2106-3"/>
              <display value="White"/>
            </valueCoding>
          </extension>
          <extension url="detailed">
            <valueCoding>
              <system value="urn:oid:2.16.840.1.113883.6.238"/>
              <code value="1010-8"/>
              <display value="Apache"/>
            </valueCoding>
          </extension>
          <extension url="otherRace">
            <valueString value="Apache"/>
          </extension>
          <extension url="text">
            <valueString value="Mixed"/>
          </extension>
        </extension>
        <extension url="http://cbsig.chai.gatech.edu/StructureDefinition/cbs-ethnicity">
          <extension url="ombCategory">
            <valueCoding>
              <system value="http://terminology.hl7.org/CodeSystem/v2-0005"/>
              <code value="2186-5"/>
              <display value="Not Hispanic or Latino"/>
            </valueCoding>
          </extension>
          <extension url="text">
            <valueString value="Not Hispanic or Latino"/>
          </extension>
        </extension>
        <extension url="http://cbsig.chai.gatech.edu/StructureDefinition/cbs-birthsex">
          <valueCodeableConcept>
            <coding>
              <system value="http://terminology.hl7.org/CodeSystem/v2-0001"/>
              <code value="F"/>
              <display value="Female"/>
            </coding>
          </valueCodeableConcept>
        </extension>
        <extension url="http://hl7.org/fhir/StructureDefinition/patient-birthPlace">
          <valueAddress>
            <country value="USA"/>
          </valueAddress>
        </extension>
        <identifier>
          <type>
            <coding>
              <system value="http://cbsig.chai.gatech.edu/CodeSystem/cbs-temp-code-system"/>
              <code value="Local-Record-ID"/>
              <display value="Local Record ID"/>
            </coding>
            <text value="Local Record ID"/>
          </type>
          <system value="urn:temp:national-reporting-jurisdiction:48"/>
          <value value="GenV2_TC01_Record"/>
        </identifier>
        <identifier>
          <type>
            <coding>
              <system value="http://cbsig.chai.gatech.edu/CodeSystem/cbs-temp-code-system"/>
              <code value="Local-Subject-ID"/>
              <display value="Local Subject ID"/>
            </coding>
            <text value="Local Subject ID"/>
          </type>
          <system value="urn:temp:national-reporting-jurisdiction:48"/>
          <value value="GenV2_TC01_Subject"/>
        </identifier>
        <identifier>
          <type>
            <coding>
              <system value="http://loinc.org"/>
              <code value="77997-5"/>
              <display value="Legacy case identifier [CDC.PHIN]"/>
            </coding>
            <text value="Legacy Case Identifier"/>
          </type>
          <system value="urn:temp:national-reporting-jurisdiction:48"/>
          <value value="48432148S012014"/>
        </identifier>
        <identifier>
          <type>
            <coding>
              <system value="http://loinc.org"/>
              <code value="77993-4"/>
              <display value="State notifiable condition case identifier"/>
            </coding>
            <text value="State Case Identifier"/>
          </type>
          <system value="urn:temp:national-reporting-jurisdiction:48"/>
          <value value="TX4321"/>
        </identifier>
        <name>
          <text value="Zzzzz, Aaaaa"/>
          <family value="Zzzzz"/>
          <given value="Aaaaa"/>
        </name>
        <gender value="female"/>
        <birthDate value="1964-05-02"/>
        <deceasedDateTime value="2014-03-02"/>
        <address>
          <use value="home"/>
          <district value="Harris"/>
          <state value="Texas"/>
          <postalCode value="77018"/>
        </address>
        <address>
          <extension url="http://cbsig.chai.gatech.edu/StructureDefinition/cbs-cdc-address-use">
            <valueCoding>
              <system value="http://cbsig.chai.gatech.edu/CodeSystem/cbs-temp-code-system"/>
              <code value="Usual-Residence"/>
            </valueCoding>
          </extension>
          <country value="USA"/>
        </address>
      </Patient>
    </resource>
  </entry>
  <entry>
    <fullUrl value="Condition/GenV2-TC-Condition"/>
    <resource>
      <Condition>
        <id value="GenV2-TC-Condition"/>
        <meta>
          <profile value="http://cbsig.chai.gatech.edu/StructureDefinition/cbs-condition"/>
        </meta>
        <text>
          <status value="extensions"/><div xmlns="http://www.w3.org/1999/xhtml"><p><b>Generated Narrative</b></p><p><b>Case Based Surveillance Case Class Status</b>: <span title="Codes: {http://snomed.info/sct 410605003}">Confirmed present</span></p><p><b>Case Based Surveillance Diagnosis Date Extension</b>: 2014-02-02</p><p><b>Case Based Surveillance Illness Duration</b>: 6 d</p><p><b>clinicalStatus</b>: <span title="Codes: {http://terminology.hl7.org/CodeSystem/condition-clinical inactive}">Inactive</span></p><p><b>code</b>: <span title="Codes: {urn:oid:2.16.840.1.114222.4.5.277 11550}">Hemolytic Uremic Syndrome</span></p><p><b>subject</b>: <a href="#Patient_GenV2-TC-Patient">GenV2-TC Example Patient. Generated Summary: Local Record ID: GenV2_TC01_Record, Local Subject ID: GenV2_TC01_Subject, Legacy Case Identifier: 48432148S012014, State Case Identifier: TX4321; Zzzzz, Aaaaa; gender: female; birthDate: 1964-05-02; deceased: 2014-03-02</a></p><p><b>onset</b>: 2014-02-24</p><p><b>abatement</b>: 2014-03-02</p></div>
        </text>
        <extension url="http://cbsig.chai.gatech.edu/StructureDefinition/cbs-case-class-status">
          <valueCodeableConcept>
            <coding>
              <system value="http://snomed.info/sct"/>
              <code value="410605003"/>
              <display value="Confirmed present"/>
            </coding>
          </valueCodeableConcept>
        </extension>
        <extension url="http://cbsig.chai.gatech.edu/StructureDefinition/cbs-diagnosis-date">
          <valueDateTime value="2014-02-02"/>
        </extension>
        <extension url="http://cbsig.chai.gatech.edu/StructureDefinition/cbs-illness-duration">
          <valueQuantity>
            <value value="6"/>
            <system value="http://unitsofmeasure.org"/>
            <code value="d"/>
          </valueQuantity>
        </extension>
        <clinicalStatus>
          <coding>
            <system value="http://terminology.hl7.org/CodeSystem/condition-clinical"/>
            <code value="inactive"/>
          </coding>
        </clinicalStatus>
        <code>
          <coding>
            <system value="urn:oid:2.16.840.1.114222.4.5.277"/>
            <code value="11550"/>
            <display value="Hemolytic Uremic Syndrome"/>
          </coding>
        </code>
        <subject>
          <reference value="Patient/GenV2-TC-Patient"/>
          <display value="GenV2-TC Example Patient"/>
        </subject>
        <onsetDateTime value="2014-02-24"/>
        <abatementDateTime value="2014-03-02"/>
      </Condition>
    </resource>
  </entry>
  <entry>
    <fullUrl value="Encounter/GenV2-TC-Hospitalization"/>
    <resource>
      <Encounter>
        <id value="GenV2-TC-Hospitalization"/>
        <meta>
          <profile value="http://cbsig.chai.gatech.edu/StructureDefinition/cbs-hospitalization"/>
        </meta>
        <text>
          <status value="generated"/><div xmlns="http://www.w3.org/1999/xhtml"><p><b>Generated Narrative</b></p><p><b>status</b>: unknown</p><p><b>class</b>: <span title="{http://terminology.hl7.org/CodeSystem/v3-ActCode IMP}">inpatient encounter</span></p><p><b>subject</b>: <a href="#Patient_GenV2-TC-Patient">GenV2-TC Example Patient. Generated Summary: Local Record ID: GenV2_TC01_Record, Local Subject ID: GenV2_TC01_Subject, Legacy Case Identifier: 48432148S012014, State Case Identifier: TX4321; Zzzzz, Aaaaa; gender: female; birthDate: 1964-05-02; deceased: 2014-03-02</a></p><p><b>period</b>: 2014-02-26 --&gt; 2014-03-02</p><h3>Diagnoses</h3><table class="grid"><tr><td>-</td><td><b>Condition</b></td></tr><tr><td>*</td><td><a href="#Condition_GenV2-TC-Condition">GenV2-TC Condition of Interest. Generated Summary: <span title="Codes: {http://terminology.hl7.org/CodeSystem/condition-clinical inactive}">Inactive</span>; <span title="Codes: {urn:oid:2.16.840.1.114222.4.5.277 11550}">Hemolytic Uremic Syndrome</span>; onset: 2014-02-24; abatement: 2014-03-02</a></td></tr></table></div>
        </text>
        <status value="unknown"/>
        <class>
          <system value="http://terminology.hl7.org/CodeSystem/v3-ActCode"/>
          <code value="IMP"/>
        </class>
        <subject>
          <reference value="Patient/GenV2-TC-Patient"/>
          <display value="GenV2-TC Example Patient"/>
        </subject>
        <period>
          <start value="2014-02-26"/>
          <end value="2014-03-02"/>
        </period>
        <length>
          <value value="4"/>
          <unit value="days"/>
          <system value="http://unitsofmeasure.org"/>
          <code value="d"/>
        </length>
        <diagnosis>
          <condition>
            <reference value="Condition/GenV2-TC-Condition"/>
            <display value="GenV2-TC Condition of Interest"/>
          </condition>
        </diagnosis>
      </Encounter>
    </resource>
  </entry>
  <entry>
    <fullUrl value="Observation/GenV2-TC-CauseOfDeath"/>
    <resource>
      <Observation>
        <id value="GenV2-TC-CauseOfDeath"/>
        <meta>
          <profile value="http://cbsig.chai.gatech.edu/StructureDefinition/cbs-cause-of-death"/>
        </meta>
        <text>
          <status value="generated"/><div xmlns="http://www.w3.org/1999/xhtml"><p><b>Generated Narrative</b></p><p></p><p><b>code</b>: <span title="Codes: {http://loinc.org 79378-6}">Cause of death</span></p><p><b>subject</b>: <a href="#Patient_GenV2-TC-Patient">GenV2-TC Example Patient. Generated Summary: Local Record ID: GenV2_TC01_Record, Local Subject ID: GenV2_TC01_Subject, Legacy Case Identifier: 48432148S012014, State Case Identifier: TX4321; Zzzzz, Aaaaa; gender: female; birthDate: 1964-05-02; deceased: 2014-03-02</a></p><p><b>focus</b>: <a href="#Condition_GenV2-TC-Condition">GenV2-TC Example Condition of Interest. Generated Summary: <span title="Codes: {http://terminology.hl7.org/CodeSystem/condition-clinical inactive}">Inactive</span>; <span title="Codes: {urn:oid:2.16.840.1.114222.4.5.277 11550}">Hemolytic Uremic Syndrome</span>; onset: 2014-02-24; abatement: 2014-03-02</a></p></div>
        </text>
        <status value="final"/>
        <code>
          <coding>
            <system value="http://loinc.org"/>
            <code value="79378-6"/>
          </coding>
        </code>
        <subject>
          <reference value="Patient/GenV2-TC-Patient"/>
          <display value="GenV2-TC Example Patient"/>
        </subject>
        <focus>
          <reference value="Condition/GenV2-TC-Condition"/>
          <display value="GenV2-TC Example Condition of Interest"/>
        </focus>
      </Observation>
    </resource>
  </entry>
  <entry>
    <fullUrl value="Practitioner/GenV2-TC-Person-Reporting"/>
    <resource>
      <Practitioner>
        <id value="GenV2-TC-Person-Reporting"/>
        <meta>
          <profile value="http://cbsig.chai.gatech.edu/StructureDefinition/cbs-person-reporting-to-cdc"/>
        </meta>
        <text>
          <status value="generated"/><div xmlns="http://www.w3.org/1999/xhtml"><p><b>Generated Narrative</b></p><p><b>name</b>: Smith, John</p><p><b>telecom</b>: ph: 444-321-1234, <a href="mailto:jsmith@txdoh.org">jsmith@txdoh.org</a></p></div>
        </text>
        <name>
          <text value="Smith, John"/>
          <family value="Smith"/>
          <given value="John"/>
        </name>
        <telecom>
          <system value="phone"/>
          <value value="444-321-1234"/>
        </telecom>
        <telecom>
          <system value="email"/>
          <value value="jsmith@txdoh.org"/>
        </telecom>
      </Practitioner>
    </resource>
  </entry>
  <entry>
    <fullUrl value="Organization/GenV2-TC-Reporting-Source"/>
    <resource>
      <Organization>
        <id value="GenV2-TC-Reporting-Source"/>
        <meta>
          <profile value="http://cbsig.chai.gatech.edu/StructureDefinition/cbs-reporting-source-organization"/>
        </meta>
        <text>
          <status value="generated"/><div xmlns="http://www.w3.org/1999/xhtml"><p><b>Generated Narrative</b></p><p><b>type</b>: <span title="Codes: {http://terminology.hl7.org/CodeSystem/v2-0406 1}">Hospital</span></p><p><b>name</b>: Reporting Source</p><p><b>address</b>: 77018 </p></div>
        </text>
        <type>
          <coding>
            <system value="http://terminology.hl7.org/CodeSystem/v2-0406"/>
            <code value="1"/>
            <display value="Hospital"/>
          </coding>
        </type>
        <name value="Reporting Source"/>
        <address>
          <postalCode value="77018"/>
        </address>
      </Organization>
    </resource>
  </entry>
  <entry>
    <fullUrl value="Observation/GenV2-TC-CNP"/>
    <resource>
      <Observation>
        <id value="GenV2-TC-CNP"/>
        <meta>
          <profile value="http://cbsig.chai.gatech.edu/StructureDefinition/cbs-case-notification-panel"/>
        </meta>
        <text>
          <status value="generated"/><div xmlns="http://www.w3.org/1999/xhtml"><p><b>Generated Narrative</b></p><p></p><p><b>category</b>: <span title="Codes: {http://loinc.org 78000-7}">Case notification panel [CDC.PHIN]</span></p><p><b>code</b>: <span title="Codes: {http://loinc.org 78000-7}">Case notification panel [CDC.PHIN]</span></p><p><b>subject</b>: <a href="#Patient_GenV2-TC-Patient">GenV2-TC Example Patient. Generated Summary: Local Record ID: GenV2_TC01_Record, Local Subject ID: GenV2_TC01_Subject, Legacy Case Identifier: 48432148S012014, State Case Identifier: TX4321; Zzzzz, Aaaaa; gender: female; birthDate: 1964-05-02; deceased: 2014-03-02</a></p><p><b>hasMember</b>: </p><ul><li><a href="#Observation_GenV2-TC-MMWR">See above (Observation/GenV2-TC-MMWR)</a></li><li><a href="#Observation_GenV2-TC-Exposure">See above (Observation/GenV2-TC-Exposure)</a></li><li><a href="#Observation_GenV2-TC-CNP-Member1">See above (Observation/GenV2-TC-CNP-Member1)</a></li><li><a href="#Observation_GenV2-TC-CNP-Member2">See above (Observation/GenV2-TC-CNP-Member2)</a></li><li><a href="#Observation_GenV2-TC-CNP-Member3">See above (Observation/GenV2-TC-CNP-Member3)</a></li><li><a href="#Observation_GenV2-TC-CNP-Member4">See above (Observation/GenV2-TC-CNP-Member4)</a></li><li><a href="#Observation_GenV2-TC-CNP-Member5">See above (Observation/GenV2-TC-CNP-Member5)</a></li><li><a href="#Observation_GenV2-TC-CNP-Member6">See above (Observation/GenV2-TC-CNP-Member6)</a></li><li><a href="#Observation_GenV2-TC-CNP-Member7">See above (Observation/GenV2-TC-CNP-Member7)</a></li><li><a href="#Observation_GenV2-TC-CNP-Member8">See above (Observation/GenV2-TC-CNP-Member8)</a></li><li><a href="#Observation_GenV2-TC-CNP-Member9">See above (Observation/GenV2-TC-CNP-Member9)</a></li><li><a href="#Observation_GenV2-TC-CNP-Member10">See above (Observation/GenV2-TC-CNP-Member10)</a></li><li><a href="#Observation_GenV2-TC-CNP-Member11">See above (Observation/GenV2-TC-CNP-Member11)</a></li><li><a href="#Observation_GenV2-TC-CNP-Member12">See above (Observation/GenV2-TC-CNP-Member12)</a></li><li><a href="#Observation_GenV2-TC-CNP-Member13">See above (Observation/GenV2-TC-CNP-Member13)</a></li><li><a href="#Observation_GenV2-TC-CNP-Member14">See above (Observation/GenV2-TC-CNP-Member14)</a></li><li><a href="#Observation_GenV2-TC-CNP-Member15">See above (Observation/GenV2-TC-CNP-Member15)</a></li></ul></div>
        </text>
        <status value="final"/>
        <category>
          <coding>
            <system value="http://loinc.org"/>
            <code value="78000-7"/>
            <display value="Case notification panel [CDC.PHIN]"/>
          </coding>
        </category>
        <code>
          <coding>
            <system value="http://loinc.org"/>
            <code value="78000-7"/>
            <display value="Case notification panel [CDC.PHIN]"/>
          </coding>
        </code>
        <subject>
          <reference value="Patient/GenV2-TC-Patient"/>
          <display value="GenV2-TC Example Patient"/>
        </subject>
        <hasMember>
          <reference value="Observation/GenV2-TC-MMWR"/>
        </hasMember>
        <hasMember>
          <reference value="Observation/GenV2-TC-Exposure"/>
        </hasMember>
        <hasMember>
          <reference value="Observation/GenV2-TC-CNP-Member1"/>
        </hasMember>
        <hasMember>
          <reference value="Observation/GenV2-TC-CNP-Member2"/>
        </hasMember>
        <hasMember>
          <reference value="Observation/GenV2-TC-CNP-Member3"/>
        </hasMember>
        <hasMember>
          <reference value="Observation/GenV2-TC-CNP-Member4"/>
        </hasMember>
        <hasMember>
          <reference value="Observation/GenV2-TC-CNP-Member5"/>
        </hasMember>
        <hasMember>
          <reference value="Observation/GenV2-TC-CNP-Member6"/>
        </hasMember>
        <hasMember>
          <reference value="Observation/GenV2-TC-CNP-Member7"/>
        </hasMember>
        <hasMember>
          <reference value="Observation/GenV2-TC-CNP-Member8"/>
        </hasMember>
        <hasMember>
          <reference value="Observation/GenV2-TC-CNP-Member9"/>
        </hasMember>
        <hasMember>
          <reference value="Observation/GenV2-TC-CNP-Member10"/>
        </hasMember>
        <hasMember>
          <reference value="Observation/GenV2-TC-CNP-Member11"/>
        </hasMember>
        <hasMember>
          <reference value="Observation/GenV2-TC-CNP-Member12"/>
        </hasMember>
        <hasMember>
          <reference value="Observation/GenV2-TC-CNP-Member13"/>
        </hasMember>
        <hasMember>
          <reference value="Observation/GenV2-TC-CNP-Member14"/>
        </hasMember>
        <hasMember>
          <reference value="Observation/GenV2-TC-CNP-Member15"/>
        </hasMember>
      </Observation>
    </resource>
  </entry>
  <entry>
    <fullUrl value="Observation/GenV2-TC-MMWR"/>
    <resource>
      <Observation>
        <id value="GenV2-TC-MMWR"/>
        <meta>
          <profile value="http://cbsig.chai.gatech.edu/StructureDefinition/cbs-mmwr"/>
        </meta>
        <text>
          <status value="generated"/><div xmlns="http://www.w3.org/1999/xhtml"><p><b>Generated Narrative</b></p><p></p><p><b>category</b>: <span title="Codes: {http://loinc.org 78000-7}">Case notification panel [CDC.PHIN]</span></p><p><b>code</b>: <span title="Codes: {http://cbsig.chai.gatech.edu/CodeSystem/cbs-temp-code-system MMWR}">MMWR Week/Year</span></p><p><b>subject</b>: <a href="#Patient_GenV2-TC-Patient">GenV2-TC Example Patient. Generated Summary: Local Record ID: GenV2_TC01_Record, Local Subject ID: GenV2_TC01_Subject, Legacy Case Identifier: 48432148S012014, State Case Identifier: TX4321; Zzzzz, Aaaaa; gender: female; birthDate: 1964-05-02; deceased: 2014-03-02</a></p><blockquote><p><b>component</b></p><p><b>code</b>: <span title="Codes: {http://loinc.org 77991-8}">MMWR Week [CDC.PHIN]</span></p><p><b>value</b>: 9</p></blockquote><blockquote><p><b>component</b></p><p><b>code</b>: <span title="Codes: {http://loinc.org 77992-6}">MMWR Year [CDC.PHIN]</span></p><p><b>value</b>: 2014</p></blockquote></div>
        </text>
        <status value="final"/>
        <category>
          <coding>
            <system value="http://loinc.org"/>
            <code value="78000-7"/>
            <display value="Case notification panel [CDC.PHIN]"/>
          </coding>
        </category>
        <code>
          <coding>
            <system value="http://cbsig.chai.gatech.edu/CodeSystem/cbs-temp-code-system"/>
            <code value="MMWR"/>
          </coding>
        </code>
        <subject>
          <reference value="Patient/GenV2-TC-Patient"/>
          <display value="GenV2-TC Example Patient"/>
        </subject>
        <component>
          <code>
            <coding>
              <system value="http://loinc.org"/>
              <code value="77991-8"/>
            </coding>
          </code>
          <valueInteger value="9"/>
        </component>
        <component>
          <code>
            <coding>
              <system value="http://loinc.org"/>
              <code value="77992-6"/>
            </coding>
          </code>
          <valueInteger value="2014"/>
        </component>
      </Observation>
    </resource>
  </entry>
  <entry>
    <fullUrl value="Observation/GenV2-TC-Exposure"/>
    <resource>
      <Observation>
        <id value="GenV2-TC-Exposure"/>
        <meta>
          <profile value="http://cbsig.chai.gatech.edu/StructureDefinition/cbs-exposure-observation"/>
        </meta>
        <text>
          <status value="generated"/><div xmlns="http://www.w3.org/1999/xhtml"><p><b>Generated Narrative</b></p><p></p><p><b>category</b>: <span title="Codes: {http://loinc.org 78000-7}">Case notification panel [CDC.PHIN]</span></p><p><b>code</b>: <span title="Codes: {http://cbsig.chai.gatech.edu/CodeSystem/cbs-temp-code-system Location-of-Exposure}">Location of Exposure</span></p><p><b>subject</b>: <a href="#Patient_GenV2-TC-Patient">GenV2-TC Example Patient. Generated Summary: Local Record ID: GenV2_TC01_Record, Local Subject ID: GenV2_TC01_Subject, Legacy Case Identifier: 48432148S012014, State Case Identifier: TX4321; Zzzzz, Aaaaa; gender: female; birthDate: 1964-05-02; deceased: 2014-03-02</a></p><p><b>focus</b>: <a href="#Condition_GenV2-TC-Condition">GenV2-TC Example Condition of Interest. Generated Summary: <span title="Codes: {http://terminology.hl7.org/CodeSystem/condition-clinical inactive}">Inactive</span>; <span title="Codes: {urn:oid:2.16.840.1.114222.4.5.277 11550}">Hemolytic Uremic Syndrome</span>; onset: 2014-02-24; abatement: 2014-03-02</a></p><blockquote><p><b>component</b></p><p><b>code</b>: <span title="Codes: {http://loinc.org 77984-3}">Country of exposure to illness [Location]</span></p><p><b>value</b>: <span title="Codes: {urn:iso:std:iso:3166 USA}">United States of America</span></p></blockquote><blockquote><p><b>component</b></p><p><b>code</b>: <span title="Codes: {http://loinc.org 77985-0}">State or province of exposure to illness</span></p><p><b>value</b>: <span title="Codes: {urn:oid:2.16.840.1.113883.6.92 48}">Texas</span></p></blockquote><blockquote><p><b>component</b></p><p><b>code</b>: <span title="Codes: {http://loinc.org 77986-8}">City of exposure to illness</span></p><p><b>value</b>: Houston</p></blockquote><blockquote><p><b>component</b></p><p><b>code</b>: <span title="Codes: {http://loinc.org 77987-6}">County of exposure to illness [Location]</span></p><p><b>value</b>: Harris</p></blockquote></div>
        </text>
        <status value="final"/>
        <category>
          <coding>
            <system value="http://loinc.org"/>
            <code value="78000-7"/>
            <display value="Case notification panel [CDC.PHIN]"/>
          </coding>
        </category>
        <code>
          <coding>
            <system value="http://cbsig.chai.gatech.edu/CodeSystem/cbs-temp-code-system"/>
            <code value="Location-of-Exposure"/>
          </coding>
        </code>
        <subject>
          <reference value="Patient/GenV2-TC-Patient"/>
          <display value="GenV2-TC Example Patient"/>
        </subject>
        <focus>
          <reference value="Condition/GenV2-TC-Condition"/>
          <display value="GenV2-TC Example Condition of Interest"/>
        </focus>
        <component>
          <code>
            <coding>
              <system value="http://loinc.org"/>
              <code value="77984-3"/>
            </coding>
          </code>
          <valueCodeableConcept>
            <coding>
              <system value="urn:iso:std:iso:3166"/>
              <code value="USA"/>
              <display value="United States of America"/>
            </coding>
          </valueCodeableConcept>
        </component>
        <component>
          <code>
            <coding>
              <system value="http://loinc.org"/>
              <code value="77985-0"/>
            </coding>
          </code>
          <valueCodeableConcept>
            <coding>
              <system value="urn:oid:2.16.840.1.113883.6.92"/>
              <code value="48"/>
              <display value="Texas"/>
            </coding>
          </valueCodeableConcept>
        </component>
        <component>
          <code>
            <coding>
              <system value="http://loinc.org"/>
              <code value="77986-8"/>
            </coding>
          </code>
          <valueString value="Houston"/>
        </component>
        <component>
          <code>
            <coding>
              <system value="http://loinc.org"/>
              <code value="77987-6"/>
            </coding>
          </code>
          <valueString value="Harris"/>
        </component>
      </Observation>
    </resource>
  </entry>
  <entry>
    <fullUrl value="Observation/GenV2-TC-CNP-Member1"/>
    <resource>
      <Observation>
        <id value="GenV2-TC-CNP-Member1"/>
        <meta>
          <profile value="http://cbsig.chai.gatech.edu/StructureDefinition/cbs-cnp-member"/>
        </meta>
        <text>
          <status value="generated"/><div xmlns="http://www.w3.org/1999/xhtml"><p><b>Generated Narrative</b></p><p></p><p><b>category</b>: <span title="Codes: {http://loinc.org 78000-7}">Case notification panel [CDC.PHIN]</span></p><p><b>code</b>: <span title="Codes: {http://loinc.org 77965-2}">Immediate national notifiable condition</span></p><p><b>subject</b>: <a href="#Patient_GenV2-TC-Patient">GenV2-TC Example Patient. Generated Summary: Local Record ID: GenV2_TC01_Record, Local Subject ID: GenV2_TC01_Subject, Legacy Case Identifier: 48432148S012014, State Case Identifier: TX4321; Zzzzz, Aaaaa; gender: female; birthDate: 1964-05-02; deceased: 2014-03-02</a></p><p><b>value</b>: <span title="Codes: {http://terminology.hl7.org/CodeSystem/v2-0005 N}">No</span></p></div>
        </text>
        <status value="final"/>
        <category>
          <coding>
            <system value="http://loinc.org"/>
            <code value="78000-7"/>
            <display value="Case notification panel [CDC.PHIN]"/>
          </coding>
        </category>
        <code>
          <coding>
            <system value="http://loinc.org"/>
            <code value="77965-2"/>
            <display value="Immediate national notifiable condition"/>
          </coding>
        </code>
        <subject>
          <reference value="Patient/GenV2-TC-Patient"/>
          <display value="GenV2-TC Example Patient"/>
        </subject>
        <valueCodeableConcept>
          <coding>
            <system value="http://terminology.hl7.org/CodeSystem/v2-0005"/>
            <code value="N"/>
            <display value="No"/>
          </coding>
        </valueCodeableConcept>
      </Observation>
    </resource>
  </entry>
  <entry>
    <fullUrl value="Observation/GenV2-TC-CNP-Member2"/>
    <resource>
      <Observation>
        <id value="GenV2-TC-CNP-Member2"/>
        <meta>
          <profile value="http://cbsig.chai.gatech.edu/StructureDefinition/cbs-cnp-member"/>
        </meta>
        <text>
          <status value="generated"/><div xmlns="http://www.w3.org/1999/xhtml"><p><b>Generated Narrative</b></p><p></p><p><b>category</b>: <span title="Codes: {http://loinc.org 78000-7}">Case notification panel [CDC.PHIN]</span></p><p><b>code</b>: <span title="Codes: {http://loinc.org 77966-0}">Reporting state</span></p><p><b>subject</b>: <a href="#Patient_GenV2-TC-Patient">GenV2-TC Example Patient. Generated Summary: Local Record ID: GenV2_TC01_Record, Local Subject ID: GenV2_TC01_Subject, Legacy Case Identifier: 48432148S012014, State Case Identifier: TX4321; Zzzzz, Aaaaa; gender: female; birthDate: 1964-05-02; deceased: 2014-03-02</a></p><p><b>value</b>: <span title="Codes: {urn:oid:2.16.840.1.113883.6.92 48}">Texas</span></p></div>
        </text>
        <status value="final"/>
        <category>
          <coding>
            <system value="http://loinc.org"/>
            <code value="78000-7"/>
            <display value="Case notification panel [CDC.PHIN]"/>
          </coding>
        </category>
        <code>
          <coding>
            <system value="http://loinc.org"/>
            <code value="77966-0"/>
            <display value="Reporting state"/>
          </coding>
        </code>
        <subject>
          <reference value="Patient/GenV2-TC-Patient"/>
          <display value="GenV2-TC Example Patient"/>
        </subject>
        <valueCodeableConcept>
          <coding>
            <system value="urn:oid:2.16.840.1.113883.6.92"/>
            <code value="48"/>
            <display value="Texas"/>
          </coding>
        </valueCodeableConcept>
      </Observation>
    </resource>
  </entry>
  <entry>
    <fullUrl value="Observation/GenV2-TC-CNP-Member3"/>
    <resource>
      <Observation>
        <id value="GenV2-TC-CNP-Member3"/>
        <meta>
          <profile value="http://cbsig.chai.gatech.edu/StructureDefinition/cbs-cnp-member"/>
        </meta>
        <text>
          <status value="generated"/><div xmlns="http://www.w3.org/1999/xhtml"><p><b>Generated Narrative</b></p><p></p><p><b>category</b>: <span title="Codes: {http://loinc.org 78000-7}">Case notification panel [CDC.PHIN]</span></p><p><b>code</b>: <span title="Codes: {http://loinc.org 77967-8}">Reporting county</span></p><p><b>subject</b>: <a href="#Patient_GenV2-TC-Patient">GenV2-TC Example Patient. Generated Summary: Local Record ID: GenV2_TC01_Record, Local Subject ID: GenV2_TC01_Subject, Legacy Case Identifier: 48432148S012014, State Case Identifier: TX4321; Zzzzz, Aaaaa; gender: female; birthDate: 1964-05-02; deceased: 2014-03-02</a></p><p><b>value</b>: <span title="Codes: {urn:oid:2.16.840.1.113883.6.93 48201}">Harris</span></p></div>
        </text>
        <status value="final"/>
        <category>
          <coding>
            <system value="http://loinc.org"/>
            <code value="78000-7"/>
            <display value="Case notification panel [CDC.PHIN]"/>
          </coding>
        </category>
        <code>
          <coding>
            <system value="http://loinc.org"/>
            <code value="77967-8"/>
            <display value="Reporting county"/>
          </coding>
        </code>
        <subject>
          <reference value="Patient/GenV2-TC-Patient"/>
          <display value="GenV2-TC Example Patient"/>
        </subject>
        <valueCodeableConcept>
          <coding>
            <system value="urn:oid:2.16.840.1.113883.6.93"/>
            <code value="48201"/>
            <display value="Harris"/>
          </coding>
        </valueCodeableConcept>
      </Observation>
    </resource>
  </entry>
  <entry>
    <fullUrl value="Observation/GenV2-TC-CNP-Member4"/>
    <resource>
      <Observation>
        <id value="GenV2-TC-CNP-Member4"/>
        <meta>
          <profile value="http://cbsig.chai.gatech.edu/StructureDefinition/cbs-cnp-member"/>
        </meta>
        <text>
          <status value="generated"/><div xmlns="http://www.w3.org/1999/xhtml"><p><b>Generated Narrative</b></p><p></p><p><b>category</b>: <span title="Codes: {http://loinc.org 78000-7}">Case notification panel [CDC.PHIN]</span></p><p><b>code</b>: <span title="Codes: {http://loinc.org 77968-6}">National reporting jurisdiction</span></p><p><b>subject</b>: <a href="#Patient_GenV2-TC-Patient">GenV2-TC Example Patient. Generated Summary: Local Record ID: GenV2_TC01_Record, Local Subject ID: GenV2_TC01_Subject, Legacy Case Identifier: 48432148S012014, State Case Identifier: TX4321; Zzzzz, Aaaaa; gender: female; birthDate: 1964-05-02; deceased: 2014-03-02</a></p><p><b>value</b>: <span title="Codes: {urn:oid:2.16.840.1.113883.6.92 48}">Texas</span></p></div>
        </text>
        <status value="final"/>
        <category>
          <coding>
            <system value="http://loinc.org"/>
            <code value="78000-7"/>
            <display value="Case notification panel [CDC.PHIN]"/>
          </coding>
        </category>
        <code>
          <coding>
            <system value="http://loinc.org"/>
            <code value="77968-6"/>
            <display value="National reporting jurisdiction"/>
          </coding>
        </code>
        <subject>
          <reference value="Patient/GenV2-TC-Patient"/>
          <display value="GenV2-TC Example Patient"/>
        </subject>
        <valueCodeableConcept>
          <coding>
            <system value="urn:oid:2.16.840.1.113883.6.92"/>
            <code value="48"/>
            <display value="Texas"/>
          </coding>
        </valueCodeableConcept>
      </Observation>
    </resource>
  </entry>
  <entry>
    <fullUrl value="Observation/GenV2-TC-CNP-Member5"/>
    <resource>
      <Observation>
        <id value="GenV2-TC-CNP-Member5"/>
        <meta>
          <profile value="http://cbsig.chai.gatech.edu/StructureDefinition/cbs-cnp-member"/>
        </meta>
        <text>
          <status value="generated"/><div xmlns="http://www.w3.org/1999/xhtml"><p><b>Generated Narrative</b></p><p></p><p><b>category</b>: <span title="Codes: {http://loinc.org 78000-7}">Case notification panel [CDC.PHIN]</span></p><p><b>code</b>: <span title="Codes: {http://loinc.org 77969-4}">Jurisdiction code</span></p><p><b>subject</b>: <a href="#Patient_GenV2-TC-Patient">GenV2-TC Example Patient. Generated Summary: Local Record ID: GenV2_TC01_Record, Local Subject ID: GenV2_TC01_Subject, Legacy Case Identifier: 48432148S012014, State Case Identifier: TX4321; Zzzzz, Aaaaa; gender: female; birthDate: 1964-05-02; deceased: 2014-03-02</a></p><p><b>value</b>: S01</p></div>
        </text>
        <status value="final"/>
        <category>
          <coding>
            <system value="http://loinc.org"/>
            <code value="78000-7"/>
            <display value="Case notification panel [CDC.PHIN]"/>
          </coding>
        </category>
        <code>
          <coding>
            <system value="http://loinc.org"/>
            <code value="77969-4"/>
            <display value="Jurisdiction code"/>
          </coding>
        </code>
        <subject>
          <reference value="Patient/GenV2-TC-Patient"/>
          <display value="GenV2-TC Example Patient"/>
        </subject>
        <valueString value="S01"/>
      </Observation>
    </resource>
  </entry>
  <entry>
    <fullUrl value="Observation/GenV2-TC-CNP-Member6"/>
    <resource>
      <Observation>
        <id value="GenV2-TC-CNP-Member6"/>
        <meta>
          <profile value="http://cbsig.chai.gatech.edu/StructureDefinition/cbs-cnp-member"/>
        </meta>
        <text>
          <status value="generated"/><div xmlns="http://www.w3.org/1999/xhtml"><p><b>Generated Narrative</b></p><p></p><p><b>category</b>: <span title="Codes: {http://loinc.org 78000-7}">Case notification panel [CDC.PHIN]</span></p><p><b>code</b>: <span title="Codes: {http://loinc.org 77970-2}">Date of initial report</span></p><p><b>subject</b>: <a href="#Patient_GenV2-TC-Patient">GenV2-TC Example Patient. Generated Summary: Local Record ID: GenV2_TC01_Record, Local Subject ID: GenV2_TC01_Subject, Legacy Case Identifier: 48432148S012014, State Case Identifier: TX4321; Zzzzz, Aaaaa; gender: female; birthDate: 1964-05-02; deceased: 2014-03-02</a></p><p><b>value</b>: 2014-02-25</p></div>
        </text>
        <status value="final"/>
        <category>
          <coding>
            <system value="http://loinc.org"/>
            <code value="78000-7"/>
            <display value="Case notification panel [CDC.PHIN]"/>
          </coding>
        </category>
        <code>
          <coding>
            <system value="http://loinc.org"/>
            <code value="77970-2"/>
            <display value="Date of initial report"/>
          </coding>
        </code>
        <subject>
          <reference value="Patient/GenV2-TC-Patient"/>
          <display value="GenV2-TC Example Patient"/>
        </subject>
        <valueDateTime value="2014-02-25"/>
      </Observation>
    </resource>
  </entry>
  <entry>
    <fullUrl value="Observation/GenV2-TC-CNP-Member7"/>
    <resource>
      <Observation>
        <id value="GenV2-TC-CNP-Member7"/>
        <meta>
          <profile value="http://cbsig.chai.gatech.edu/StructureDefinition/cbs-cnp-member"/>
        </meta>
        <text>
          <status value="generated"/><div xmlns="http://www.w3.org/1999/xhtml"><p><b>Generated Narrative</b></p><p></p><p><b>category</b>: <span title="Codes: {http://loinc.org 78000-7}">Case notification panel [CDC.PHIN]</span></p><p><b>code</b>: <span title="Codes: {http://loinc.org 77972-8}">Earliest date reported to county</span></p><p><b>subject</b>: <a href="#Patient_GenV2-TC-Patient">GenV2-TC Example Patient. Generated Summary: Local Record ID: GenV2_TC01_Record, Local Subject ID: GenV2_TC01_Subject, Legacy Case Identifier: 48432148S012014, State Case Identifier: TX4321; Zzzzz, Aaaaa; gender: female; birthDate: 1964-05-02; deceased: 2014-03-02</a></p><p><b>value</b>: 2014-02-25</p></div>
        </text>
        <status value="final"/>
        <category>
          <coding>
            <system value="http://loinc.org"/>
            <code value="78000-7"/>
            <display value="Case notification panel [CDC.PHIN]"/>
          </coding>
        </category>
        <code>
          <coding>
            <system value="http://loinc.org"/>
            <code value="77972-8"/>
            <display value="Earliest date reported to county"/>
          </coding>
        </code>
        <subject>
          <reference value="Patient/GenV2-TC-Patient"/>
          <display value="GenV2-TC Example Patient"/>
        </subject>
        <valueDateTime value="2014-02-25"/>
      </Observation>
    </resource>
  </entry>
  <entry>
    <fullUrl value="Observation/GenV2-TC-CNP-Member8"/>
    <resource>
      <Observation>
        <id value="GenV2-TC-CNP-Member8"/>
        <meta>
          <profile value="http://cbsig.chai.gatech.edu/StructureDefinition/cbs-cnp-member"/>
        </meta>
        <text>
          <status value="generated"/><div xmlns="http://www.w3.org/1999/xhtml"><p><b>Generated Narrative</b></p><p></p><p><b>category</b>: <span title="Codes: {http://loinc.org 78000-7}">Case notification panel [CDC.PHIN]</span></p><p><b>code</b>: <span title="Codes: {http://loinc.org 77973-6}">Earliest date reported to state</span></p><p><b>subject</b>: <a href="#Patient_GenV2-TC-Patient">GenV2-TC Example Patient. Generated Summary: Local Record ID: GenV2_TC01_Record, Local Subject ID: GenV2_TC01_Subject, Legacy Case Identifier: 48432148S012014, State Case Identifier: TX4321; Zzzzz, Aaaaa; gender: female; birthDate: 1964-05-02; deceased: 2014-03-02</a></p><p><b>value</b>: 2014-02-25</p></div>
        </text>
        <status value="final"/>
        <category>
          <coding>
            <system value="http://loinc.org"/>
            <code value="78000-7"/>
            <display value="Case notification panel [CDC.PHIN]"/>
          </coding>
        </category>
        <code>
          <coding>
            <system value="http://loinc.org"/>
            <code value="77973-6"/>
            <display value="Earliest date reported to state"/>
          </coding>
        </code>
        <subject>
          <reference value="Patient/GenV2-TC-Patient"/>
          <display value="GenV2-TC Example Patient"/>
        </subject>
        <valueDateTime value="2014-02-25"/>
      </Observation>
    </resource>
  </entry>
  <entry>
    <fullUrl value="Observation/GenV2-TC-CNP-Member9"/>
    <resource>
      <Observation>
        <id value="GenV2-TC-CNP-Member9"/>
        <meta>
          <profile value="http://cbsig.chai.gatech.edu/StructureDefinition/cbs-cnp-member"/>
        </meta>
        <text>
          <status value="generated"/><div xmlns="http://www.w3.org/1999/xhtml"><p><b>Generated Narrative</b></p><p></p><p><b>category</b>: <span title="Codes: {http://loinc.org 78000-7}">Case notification panel [CDC.PHIN]</span></p><p><b>code</b>: <span title="Codes: {http://loinc.org 77979-3}">Case investigation start date</span></p><p><b>subject</b>: <a href="#Patient_GenV2-TC-Patient">GenV2-TC Example Patient. Generated Summary: Local Record ID: GenV2_TC01_Record, Local Subject ID: GenV2_TC01_Subject, Legacy Case Identifier: 48432148S012014, State Case Identifier: TX4321; Zzzzz, Aaaaa; gender: female; birthDate: 1964-05-02; deceased: 2014-03-02</a></p><p><b>value</b>: 2014-02-25</p></div>
        </text>
        <status value="final"/>
        <category>
          <coding>
            <system value="http://loinc.org"/>
            <code value="78000-7"/>
            <display value="Case notification panel [CDC.PHIN]"/>
          </coding>
        </category>
        <code>
          <coding>
            <system value="http://loinc.org"/>
            <code value="77979-3"/>
            <display value="Case investigation start date"/>
          </coding>
        </code>
        <subject>
          <reference value="Patient/GenV2-TC-Patient"/>
          <display value="GenV2-TC Example Patient"/>
        </subject>
        <valueDateTime value="2014-02-25"/>
      </Observation>
    </resource>
  </entry>
  <entry>
    <fullUrl value="Observation/GenV2-TC-CNP-Member10"/>
    <resource>
      <Observation>
        <id value="GenV2-TC-CNP-Member10"/>
        <meta>
          <profile value="http://cbsig.chai.gatech.edu/StructureDefinition/cbs-cnp-member"/>
        </meta>
        <text>
          <status value="generated"/><div xmlns="http://www.w3.org/1999/xhtml"><p><b>Generated Narrative</b></p><p></p><p><b>category</b>: <span title="Codes: {http://loinc.org 78000-7}">Case notification panel [CDC.PHIN]</span></p><p><b>code</b>: <span title="Codes: {http://cbsig.chai.gatech.edu/CodeSystem/cbs-temp-code-system case-outbreak}">Case Outbreak Name and Indicator</span></p><p><b>subject</b>: <a href="#Patient_GenV2-TC-Patient">GenV2-TC Example Patient. Generated Summary: Local Record ID: GenV2_TC01_Record, Local Subject ID: GenV2_TC01_Subject, Legacy Case Identifier: 48432148S012014, State Case Identifier: TX4321; Zzzzz, Aaaaa; gender: female; birthDate: 1964-05-02; deceased: 2014-03-02</a></p><blockquote><p><b>component</b></p><p><b>code</b>: <span title="Codes: {http://loinc.org 77980-1}">Case is associated with a known outbreak</span></p><p><b>value</b>: <span title="Codes: {http://terminology.hl7.org/CodeSystem/v2-0005 Y}">Yes</span></p></blockquote><blockquote><p><b>component</b></p><p><b>code</b>: <span title="Codes: {http://loinc.org 77981-9}">Case outbreak name</span></p><p><b>value</b>: HANSENOUTB1</p></blockquote></div>
        </text>
        <status value="final"/>
        <category>
          <coding>
            <system value="http://loinc.org"/>
            <code value="78000-7"/>
            <display value="Case notification panel [CDC.PHIN]"/>
          </coding>
        </category>
        <code>
          <coding>
            <system value="http://cbsig.chai.gatech.edu/CodeSystem/cbs-temp-code-system"/>
            <code value="case-outbreak"/>
            <display value="Case Outbreak Name and Indicator"/>
          </coding>
        </code>
        <subject>
          <reference value="Patient/GenV2-TC-Patient"/>
          <display value="GenV2-TC Example Patient"/>
        </subject>
        <component>
          <code>
            <coding>
              <system value="http://loinc.org"/>
              <code value="77980-1"/>
            </coding>
          </code>
          <valueCodeableConcept>
            <coding>
              <system value="http://terminology.hl7.org/CodeSystem/v2-0005"/>
              <code value="Y"/>
              <display value="Yes"/>
            </coding>
          </valueCodeableConcept>
        </component>
        <component>
          <code>
            <coding>
              <system value="http://loinc.org"/>
              <code value="77981-9"/>
            </coding>
          </code>
          <valueString value="HANSENOUTB1"/>
        </component>
      </Observation>
    </resource>
  </entry>
  <entry>
    <fullUrl value="Observation/GenV2-TC-CNP-Member11"/>
    <resource>
      <Observation>
        <id value="GenV2-TC-CNP-Member11"/>
        <meta>
          <profile value="http://cbsig.chai.gatech.edu/StructureDefinition/cbs-cnp-member"/>
        </meta>
        <text>
          <status value="generated"/><div xmlns="http://www.w3.org/1999/xhtml"><p><b>Generated Narrative</b></p><p></p><p><b>category</b>: <span title="Codes: {http://loinc.org 78000-7}">Case notification panel [CDC.PHIN]</span></p><p><b>code</b>: <span title="Codes: {http://loinc.org 77988-4}">Binational reporting criteria [CDC.PHIN]</span></p><p><b>subject</b>: <a href="#Patient_GenV2-TC-Patient">GenV2-TC Example Patient. Generated Summary: Local Record ID: GenV2_TC01_Record, Local Subject ID: GenV2_TC01_Subject, Legacy Case Identifier: 48432148S012014, State Case Identifier: TX4321; Zzzzz, Aaaaa; gender: female; birthDate: 1964-05-02; deceased: 2014-03-02</a></p><p><b>value</b>: <span title="Codes: {urn:oid:2.16.840.1.114222.4.5.274 PHC1140}">Exposure to suspected product from Canada or Mexico</span></p></div>
        </text>
        <status value="final"/>
        <category>
          <coding>
            <system value="http://loinc.org"/>
            <code value="78000-7"/>
            <display value="Case notification panel [CDC.PHIN]"/>
          </coding>
        </category>
        <code>
          <coding>
            <system value="http://loinc.org"/>
            <code value="77988-4"/>
            <display value="Binational reporting criteria [CDC.PHIN]"/>
          </coding>
        </code>
        <subject>
          <reference value="Patient/GenV2-TC-Patient"/>
          <display value="GenV2-TC Example Patient"/>
        </subject>
        <valueCodeableConcept>
          <coding>
            <system value="urn:oid:2.16.840.1.114222.4.5.274"/>
            <code value="PHC1140"/>
            <display value="Exposure to suspected product from Canada or Mexico"/>
          </coding>
        </valueCodeableConcept>
      </Observation>
    </resource>
  </entry>
  <entry>
    <fullUrl value="Observation/GenV2-TC-CNP-Member12"/>
    <resource>
      <Observation>
        <id value="GenV2-TC-CNP-Member12"/>
        <meta>
          <profile value="http://cbsig.chai.gatech.edu/StructureDefinition/cbs-cnp-member"/>
        </meta>
        <text>
          <status value="generated"/><div xmlns="http://www.w3.org/1999/xhtml"><p><b>Generated Narrative</b></p><p></p><p><b>category</b>: <span title="Codes: {http://loinc.org 78000-7}">Case notification panel [CDC.PHIN]</span></p><p><b>code</b>: <span title="Codes: {http://loinc.org 77989-2}">Disease transmission mode</span></p><p><b>subject</b>: <a href="#Patient_GenV2-TC-Patient">GenV2-TC Example Patient. Generated Summary: Local Record ID: GenV2_TC01_Record, Local Subject ID: GenV2_TC01_Subject, Legacy Case Identifier: 48432148S012014, State Case Identifier: TX4321; Zzzzz, Aaaaa; gender: female; birthDate: 1964-05-02; deceased: 2014-03-02</a></p><p><b>value</b>: <span title="Codes: {http://snomed.info/sct 416086007}">Food-borne transmission</span></p></div>
        </text>
        <status value="final"/>
        <category>
          <coding>
            <system value="http://loinc.org"/>
            <code value="78000-7"/>
            <display value="Case notification panel [CDC.PHIN]"/>
          </coding>
        </category>
        <code>
          <coding>
            <system value="http://loinc.org"/>
            <code value="77989-2"/>
            <display value="Disease transmission mode"/>
          </coding>
        </code>
        <subject>
          <reference value="Patient/GenV2-TC-Patient"/>
          <display value="GenV2-TC Example Patient"/>
        </subject>
        <valueCodeableConcept>
          <coding>
            <system value="http://snomed.info/sct"/>
            <code value="416086007"/>
            <display value="Food-borne transmission"/>
          </coding>
        </valueCodeableConcept>
      </Observation>
    </resource>
  </entry>
  <entry>
    <fullUrl value="Observation/GenV2-TC-CNP-Member13"/>
    <resource>
      <Observation>
        <id value="GenV2-TC-CNP-Member13"/>
        <meta>
          <profile value="http://cbsig.chai.gatech.edu/StructureDefinition/cbs-cnp-member"/>
        </meta>
        <text>
          <status value="generated"/><div xmlns="http://www.w3.org/1999/xhtml"><p><b>Generated Narrative</b></p><p></p><p><b>category</b>: <span title="Codes: {http://loinc.org 78000-7}">Case notification panel [CDC.PHIN]</span></p><p><b>code</b>: <span title="Codes: {http://loinc.org 77995-9}">Date of first report to public health department</span></p><p><b>subject</b>: <a href="#Patient_GenV2-TC-Patient">GenV2-TC Example Patient. Generated Summary: Local Record ID: GenV2_TC01_Record, Local Subject ID: GenV2_TC01_Subject, Legacy Case Identifier: 48432148S012014, State Case Identifier: TX4321; Zzzzz, Aaaaa; gender: female; birthDate: 1964-05-02; deceased: 2014-03-02</a></p><p><b>value</b>: 2014-02-25</p></div>
        </text>
        <status value="final"/>
        <category>
          <coding>
            <system value="http://loinc.org"/>
            <code value="78000-7"/>
            <display value="Case notification panel [CDC.PHIN]"/>
          </coding>
        </category>
        <code>
          <coding>
            <system value="http://loinc.org"/>
            <code value="77995-9"/>
            <display value="Date of first report to public health department"/>
          </coding>
        </code>
        <subject>
          <reference value="Patient/GenV2-TC-Patient"/>
          <display value="GenV2-TC Example Patient"/>
        </subject>
        <valueDateTime value="2014-02-25"/>
      </Observation>
    </resource>
  </entry>
  <entry>
    <fullUrl value="Observation/GenV2-TC-CNP-Member14"/>
    <resource>
      <Observation>
        <id value="GenV2-TC-CNP-Member14"/>
        <meta>
          <profile value="http://cbsig.chai.gatech.edu/StructureDefinition/cbs-cnp-member"/>
        </meta>
        <text>
          <status value="generated"/><div xmlns="http://www.w3.org/1999/xhtml"><p><b>Generated Narrative</b></p><p></p><p><b>category</b>: <span title="Codes: {http://loinc.org 78000-7}">Case notification panel [CDC.PHIN]</span></p><p><b>code</b>: <span title="Codes: {http://loinc.org 77996-7}">Pregnancy status at time of illness or condition</span></p><p><b>subject</b>: <a href="#Patient_GenV2-TC-Patient">GenV2-TC Example Patient. Generated Summary: Local Record ID: GenV2_TC01_Record, Local Subject ID: GenV2_TC01_Subject, Legacy Case Identifier: 48432148S012014, State Case Identifier: TX4321; Zzzzz, Aaaaa; gender: female; birthDate: 1964-05-02; deceased: 2014-03-02</a></p><p><b>value</b>: <span title="Codes: {http://terminology.hl7.org/CodeSystem/v2-0532 N}">No</span></p></div>
        </text>
        <status value="final"/>
        <category>
          <coding>
            <system value="http://loinc.org"/>
            <code value="78000-7"/>
            <display value="Case notification panel [CDC.PHIN]"/>
          </coding>
        </category>
        <code>
          <coding>
            <system value="http://loinc.org"/>
            <code value="77996-7"/>
            <display value="Pregnancy status at time of illness or condition"/>
          </coding>
        </code>
        <subject>
          <reference value="Patient/GenV2-TC-Patient"/>
          <display value="GenV2-TC Example Patient"/>
        </subject>
        <valueCodeableConcept>
          <coding>
            <system value="http://terminology.hl7.org/CodeSystem/v2-0532"/>
            <code value="N"/>
            <display value="No"/>
          </coding>
        </valueCodeableConcept>
      </Observation>
    </resource>
  </entry>
  <entry>
    <fullUrl value="Observation/GenV2-TC-CNP-Member15"/>
    <resource>
      <Observation>
        <id value="GenV2-TC-CNP-Member15"/>
        <meta>
          <profile value="http://cbsig.chai.gatech.edu/StructureDefinition/cbs-cnp-member"/>
        </meta>
        <text>
          <status value="generated"/><div xmlns="http://www.w3.org/1999/xhtml"><p><b>Generated Narrative</b></p><p></p><p><b>category</b>: <span title="Codes: {http://loinc.org 78000-7}">Case notification panel [CDC.PHIN]</span></p><p><b>code</b>: <span title="Codes: {http://loinc.org 77998-3}">Age at time of case investigation</span></p><p><b>subject</b>: <a href="#Patient_GenV2-TC-Patient">GenV2-TC Example Patient. Generated Summary: Local Record ID: GenV2_TC01_Record, Local Subject ID: GenV2_TC01_Subject, Legacy Case Identifier: 48432148S012014, State Case Identifier: TX4321; Zzzzz, Aaaaa; gender: female; birthDate: 1964-05-02; deceased: 2014-03-02</a></p><p><b>value</b>: 49</p></div>
        </text>
        <status value="final"/>
        <category>
          <coding>
            <system value="http://loinc.org"/>
            <code value="78000-7"/>
            <display value="Case notification panel [CDC.PHIN]"/>
          </coding>
        </category>
        <code>
          <coding>
            <system value="http://loinc.org"/>
            <code value="77998-3"/>
            <display value="Age at time of case investigation"/>
          </coding>
        </code>
        <subject>
          <reference value="Patient/GenV2-TC-Patient"/>
          <display value="GenV2-TC Example Patient"/>
        </subject>
        <valueInteger value="49"/>
      </Observation>
    </resource>
  </entry>
</Bundle>