{
  "resourceType": "Bundle",
  "id": "GenV2-TC-Document",
  "meta": {
    "profile": [
      "http://cbsig.chai.gatech.edu/StructureDefinition/cbs-document-bundle"
    ]
  },
  "identifier": {
    "type": {
      "coding": [
        {
          "system": "http://cbsig.chai.gatech.edu/CodeSystem/cbs-temp-code-system",
          "code": "Local-Record-ID",
          "display": "Local Record ID"
        }
      ],
      "text": "Local Record ID"
    },
    "system": "urn:temp:national-reporting-jurisdiction:48",
    "value": "GenV2_TC01_Record"
  },
  "type": "document",
  "timestamp": "2014-03-02T00:00:00Z",
  "entry": [
    {
      "fullUrl": "http://cbsig.chai.gatech.edu/Composition-GenV2-TC-Composition.html",
      "resource": {
        "resourceType": "Composition",
        "id": "GenV2-TC-Composition",
        "meta": {
          "profile": [
            "http://cbsig.chai.gatech.edu/StructureDefinition/cbs-composition"
          ]
        },
        "text": {
          "status": "generated",
          "div": "<div xmlns=\"http://www.w3.org/1999/xhtml\"><p><b>Generated Narrative</b></p><p><b>status</b>: final</p><p><b>type</b>: <span title=\"Codes: {http://loinc.org 55751-2}\">Public health Case report</span></p><p><b>date</b>: 2014-03-02</p><p><b>author</b>: <a href=\"#Organization_GenV2-TC-Reporting-Source\">See above (Organization/GenV2-TC-Reporting-Source)</a></p><p><b>title</b>: Case Based Surveillance Composition</p></div>"
        },
        "status": "final",
        "type": {
          "coding": [
            {
              "system": "http://loinc.org",
              "code": "55751-2"
            }
          ]
        },
        "subject": {
          "reference": "Patient/GenV2-TC-Patient"
        },
        "date": "2014-03-02",
        "author": [
          {
            "reference": "Organization/GenV2-TC-Reporting-Source"
          }
        ],
        "title": "Case Based Surveillance Composition",
        "section": [
          {
            "title": "Condition of Interest",
            "entry": [
              {
                "reference": "Condition/GenV2-TC-Condition"
              }
            ]
          },
          {
            "title": "Case Notification Panel",
            "entry": [
              {
                "reference": "Observation/GenV2-TC-CNP"
              }
            ],
            "section": [
              {
                "entry": [
                  {
                    "reference": "Observation/GenV2-TC-MMWR"
                  },
                  {
                    "reference": "Observation/GenV2-TC-Exposure"
                  },
                  {
                    "reference": "Observation/GenV2-TC-CNP-Member1"
                  },
                  {
                    "reference": "Observation/GenV2-TC-CNP-Member2"
                  },
                  {
                    "reference": "Observation/GenV2-TC-CNP-Member3"
                  },
                  {
                    "reference": "Observation/GenV2-TC-CNP-Member4"
                  },
                  {
                    "reference": "Observation/GenV2-TC-CNP-Member5"
                  },
                  {
                    "reference": "Observation/GenV2-TC-CNP-Member6"
                  },
                  {
                    "reference": "Observation/GenV2-TC-CNP-Member7"
                  },
                  {
                    "reference": "Observation/GenV2-TC-CNP-Member8"
                  },
                  {
                    "reference": "Observation/GenV2-TC-CNP-Member9"
                  },
                  {
                    "reference": "Observation/GenV2-TC-CNP-Member10"
                  },
                  {
                    "reference": "Observation/GenV2-TC-CNP-Member11"
                  },
                  {
                    "reference": "Observation/GenV2-TC-CNP-Member12"
                  },
                  {
                    "reference": "Observation/GenV2-TC-CNP-Member13"
                  },
                  {
                    "reference": "Observation/GenV2-TC-CNP-Member14"
                  },
                  {
                    "reference": "Observation/GenV2-TC-CNP-Member15"
                  }
                ]
              }
            ]
          },
          {
            "title": "Encounters",
            "entry": [
              {
                "reference": "Encounter/GenV2-TC-Hospitalization"
              }
            ]
          },
          {
            "title": "Reporting",
            "entry": [
              {
                "reference": "Practitioner/GenV2-TC-Person-Reporting"
              },
              {
                "reference": "Organization/GenV2-TC-Reporting-Source"
              }
            ]
          }
        ]
      }
    },
    {
      "fullUrl": "http://cbsig.chai.gatech.edu/Patient-GenV2-TC-Patient.html",
      "resource": {
        "resourceType": "Patient",
        "id": "GenV2-TC-Patient",
        "meta": {
          "profile": [
            "http://cbsig.chai.gatech.edu/StructureDefinition/cbs-patient"
          ]
        },
        "text": {
          "status": "extensions",
          "div": "<div xmlns=\"http://www.w3.org/1999/xhtml\"><p><b>Generated Narrative</b></p><blockquote><p><b>Case Based Surveillance Race Extension</b></p><p><b>value</b>: <span title=\"{urn:oid:2.16.840.1.113883.6.238 2106-3}\">White</span></p><p><b>value</b>: <span title=\"{urn:oid:2.16.840.1.113883.6.238 1010-8}\">Apache</span></p><p><b>value</b>: Apache</p><p><b>value</b>: Mixed</p></blockquote><blockquote><p><b>Case Based Surveillance Ethnicity Extension</b></p><p><b>value</b>: <span title=\"{http://terminology.hl7.org/CodeSystem/v2-0005 2186-5}\">Not Hispanic or Latino</span></p><p><b>value</b>: Not Hispanic or Latino</p></blockquote><p><b>Case Based Surveillance Sex Assigned at Birth Extension</b>: <span title=\"Codes: {http://terminology.hl7.org/CodeSystem/v2-0001 F}\">Female</span></p><p><b>Birth Place</b>: USA </p><p><b>identifier</b>: Local Record ID: GenV2_TC01_Record, Local Subject ID: GenV2_TC01_Subject, Legacy Case Identifier: 48432148S012014, State Case Identifier: TX4321</p><p><b>name</b>: Zzzzz, Aaaaa</p><p><b>gender</b>: female</p><p><b>birthDate</b>: 1964-05-02</p><p><b>deceased</b>: 2014-03-02</p><p><b>address</b>: </p><ul><li></li></ul><p><b style=\"color: maroon\">Exception generating Narrative: Unknown AddressUse code 'Address-at-Diagnosis'</b></p></div>"
        },
        "extension": [
          {
            "extension": [
              {
                "url": "ombCategory",
                "valueCoding": {
                  "system": "urn:oid:2.16.840.1.113883.6.238",
                  "code": "2106-3",
                  "display": "White"
                }
              },
              {
                "url": "detailed",
                "valueCoding": {
                  "system": "urn:oid:2.16.840.1.113883.6.238",
                  "code": "1010-8",
                  "display": "Apache"
                }
              },
              {
                "url": "otherRace",
                "valueString": "Apache"
              },
              {
                "url": "text",
                "valueString": "Mixed"
              }
            ],
            "url": "http://cbsig.chai.gatech.edu/StructureDefinition/cbs-race"
          },
          {
            "extension": [
              {
                "url": "ombCategory",
                "valueCoding": {
                  "system": "http://terminology.hl7.org/CodeSystem/v2-0005",
                  "code": "2186-5",
                  "display": "Not Hispanic or Latino"
                }
              },
              {
                "url": "text",
                "valueString": "Not Hispanic or Latino"
              }
            ],
            "url": "http://cbsig.chai.gatech.edu/StructureDefinition/cbs-ethnicity"
          },
          {
            "url": "http://cbsig.chai.gatech.edu/StructureDefinition/cbs-birthsex",
            "valueCodeableConcept": {
              "coding": [
                {
                  "system": "http://terminology.hl7.org/CodeSystem/v2-0001",
                  "code": "F",
                  "display": "Female"
                }
              ]
            }
          },
          {
            "url": "http://hl7.org/fhir/StructureDefinition/patient-birthPlace",
            "valueAddress": {
              "country": "USA"
            }
          }
        ],
        "identifier": [
          {
            "type": {
              "coding": [
                {
                  "system": "http://cbsig.chai.gatech.edu/CodeSystem/cbs-temp-code-system",
                  "code": "Local-Record-ID",
                  "display": "Local Record ID"
                }
              ],
              "text": "Local Record ID"
            },
            "system": "urn:temp:national-reporting-jurisdiction:48",
            "value": "GenV2_TC01_Record"
          },
          {
            "type": {
              "coding": [
                {
                  "system": "http://cbsig.chai.gatech.edu/CodeSystem/cbs-temp-code-system",
                  "code": "Local-Subject-ID",
                  "display": "Local Subject ID"
                }
              ],
              "text": "Local Subject ID"
            },
            "system": "urn:temp:national-reporting-jurisdiction:48",
            "value": "GenV2_TC01_Subject"
          },
          {
            "type": {
              "coding": [
                {
                  "system": "http://loinc.org",
                  "code": "77997-5",
                  "display": "Legacy case identifier [CDC.PHIN]"
                }
              ],
              "text": "Legacy Case Identifier"
            },
            "system": "urn:temp:national-reporting-jurisdiction:48",
            "value": "48432148S012014"
          },
          {
            "type": {
              "coding": [
                {
                  "system": "http://loinc.org",
                  "code": "77993-4",
                  "display": "State notifiable condition case identifier"
                }
              ],
              "text": "State Case Identifier"
            },
            "system": "urn:temp:national-reporting-jurisdiction:48",
            "value": "TX4321"
          }
        ],
        "name": [
          {
            "text": "Zzzzz, Aaaaa",
            "family": "Zzzzz",
            "given": [
              "Aaaaa"
            ]
          }
        ],
        "gender": "female",
        "birthDate": "1964-05-02",
        "deceasedDateTime": "2014-03-02",
        "address": [
          {
            "use": "Address-at-Diagnosis",
            "district": "Harris",
            "state": "Texas",
            "postalCode": "77018"
          },
          {
            "use": "Usual-Residence",
            "country": "USA"
          }
        ]
      }
    },
    {
      "fullUrl": "http://cbsig.chai.gatech.edu/Condition-GenV2-TC-Condition.html",
      "resource": {
        "resourceType": "Condition",
        "id": "GenV2-TC-Condition",
        "meta": {
          "profile": [
            "http://cbsig.chai.gatech.edu/StructureDefinition/cbs-condition"
          ]
        },
        "text": {
          "status": "extensions",
          "div": "<div xmlns=\"http://www.w3.org/1999/xhtml\"><p><b>Generated Narrative</b></p><p><b>Case Based Surveillance Case Class Status</b>: <span title=\"Codes: {http://snomed.info/sct 410605003}\">Confirmed present</span></p><p><b>Case Based Surveillance Diagnosis Date Extension</b>: 2014-02-02</p><p><b>Case Based Surveillance Illness Duration</b>: 6 d</p><p><b>clinicalStatus</b>: <span title=\"Codes: {http://terminology.hl7.org/CodeSystem/condition-clinical inactive}\">Inactive</span></p><p><b>code</b>: <span title=\"Codes: {urn:oid:2.16.840.1.114222.4.5.277 11550}\">Hemolytic Uremic Syndrome</span></p><p><b>subject</b>: <a href=\"#Patient_GenV2-TC-Patient\">GenV2-TC Example Patient. Generated Summary: Local Record ID: GenV2_TC01_Record, Local Subject ID: GenV2_TC01_Subject, Legacy Case Identifier: 48432148S012014, State Case Identifier: TX4321; Zzzzz, Aaaaa; gender: female; birthDate: 1964-05-02; deceased: 2014-03-02</a></p><p><b>onset</b>: 2014-02-24</p><p><b>abatement</b>: 2014-03-02</p></div>"
        },
        "extension": [
          {
            "url": "http://cbsig.chai.gatech.edu/StructureDefinition/cbs-case-class-status",
            "valueCodeableConcept": {
              "coding": [
                {
                  "system": "http://snomed.info/sct",
                  "code": "410605003",
                  "display": "Confirmed present"
                }
              ]
            }
          },
          {
            "url": "http://cbsig.chai.gatech.edu/StructureDefinition/cbs-diagnosis-date",
            "valueDateTime": "2014-02-02"
          },
          {
            "url": "http://cbsig.chai.gatech.edu/StructureDefinition/cbs-illness-duration",
            "valueQuantity": {
              "value": 6,
              "system": "http://unitsofmeasure.org",
              "code": "d"
            }
          }
        ],
        "clinicalStatus": {
          "coding": [
            {
              "system": "http://terminology.hl7.org/CodeSystem/condition-clinical",
              "code": "inactive"
            }
          ]
        },
        "code": {
          "coding": [
            {
              "system": "urn:oid:2.16.840.1.114222.4.5.277",
              "code": "11550",
              "display": "Hemolytic Uremic Syndrome"
            }
          ]
        },
        "subject": {
          "reference": "Patient/GenV2-TC-Patient",
          "display": "GenV2-TC Example Patient"
        },
        "onsetDateTime": "2014-02-24",
        "abatementDateTime": "2014-03-02"
      }
    },
    {
      "fullUrl": "http://cbsig.chai.gatech.edu/Encounter-GenV2-TC-Hospitalization.html",
      "resource": {
        "resourceType": "Encounter",
        "id": "GenV2-TC-Hospitalization",
        "meta": {
          "profile": [
            "http://cbsig.chai.gatech.edu/StructureDefinition/cbs-hospitalization"
          ]
        },
        "text": {
          "status": "generated",
          "div": "<div xmlns=\"http://www.w3.org/1999/xhtml\"><p><b>Generated Narrative</b></p><p><b>status</b>: unknown</p><p><b>class</b>: <span title=\"{http://terminology.hl7.org/CodeSystem/v3-ActCode IMP}\">inpatient encounter</span></p><p><b>subject</b>: <a href=\"#Patient_GenV2-TC-Patient\">GenV2-TC Example Patient. Generated Summary: Local Record ID: GenV2_TC01_Record, Local Subject ID: GenV2_TC01_Subject, Legacy Case Identifier: 48432148S012014, State Case Identifier: TX4321; Zzzzz, Aaaaa; gender: female; birthDate: 1964-05-02; deceased: 2014-03-02</a></p><p><b>period</b>: 2014-02-26 --&gt; 2014-03-02</p><h3>Diagnoses</h3><table class=\"grid\"><tr><td>-</td><td><b>Condition</b></td></tr><tr><td>*</td><td><a href=\"#Condition_GenV2-TC-Condition\">GenV2-TC Condition of Interest. Generated Summary: <span title=\"Codes: {http://terminology.hl7.org/CodeSystem/condition-clinical inactive}\">Inactive</span>; <span title=\"Codes: {urn:oid:2.16.840.1.114222.4.5.277 11550}\">Hemolytic Uremic Syndrome</span>; onset: 2014-02-24; abatement: 2014-03-02</a></td></tr></table></div>"
        },
        "status": "unknown",
        "class": {
          "system": "http://terminology.hl7.org/CodeSystem/v3-ActCode",
          "code": "IMP"
        },
        "subject": {
          "reference": "Patient/GenV2-TC-Patient",
          "display": "GenV2-TC Example Patient"
        },
        "period": {
          "start": "2014-02-26",
          "end": "2014-03-02"
        },
        "length": {
          "value": 4,
          "unit": "days",
          "system": "http://unitsofmeasure.org",
          "code": "d"
        },
        "diagnosis": [
          {
            "condition": {
              "reference": "Condition/GenV2-TC-Condition",
              "display": "GenV2-TC Condition of Interest"
            }
          }
        ]
      }
    },
    {
      "fullUrl": "http://cbsig.chai.gatech.edu/Observation-GenV2-TC-CauseOfDeath.html",
      "resource": {
        "resourceType": "Observation",
        "id": "GenV2-TC-CauseOfDeath",
        "meta": {
          "profile": [
            "http://cbsig.chai.gatech.edu/StructureDefinition/cbs-cause-of-death"
          ]
        },
        "text": {
          "status": "generated",
          "div": "<div xmlns=\"http://www.w3.org/1999/xhtml\"><p><b>Generated Narrative</b></p><p></p><p><b>code</b>: <span title=\"Codes: {http://loinc.org 79378-6}\">Cause of death</span></p><p><b>subject</b>: <a href=\"#Patient_GenV2-TC-Patient\">GenV2-TC Example Patient. Generated Summary: Local Record ID: GenV2_TC01_Record, Local Subject ID: GenV2_TC01_Subject, Legacy Case Identifier: 48432148S012014, State Case Identifier: TX4321; Zzzzz, Aaaaa; gender: female; birthDate: 1964-05-02; deceased: 2014-03-02</a></p><p><b>focus</b>: <a href=\"#Condition_GenV2-TC-Condition\">GenV2-TC Example Condition of Interest. Generated Summary: <span title=\"Codes: {http://terminology.hl7.org/CodeSystem/condition-clinical inactive}\">Inactive</span>; <span title=\"Codes: {urn:oid:2.16.840.1.114222.4.5.277 11550}\">Hemolytic Uremic Syndrome</span>; onset: 2014-02-24; abatement: 2014-03-02</a></p></div>"
        },
        "status": "final",
        "code": {
          "coding": [
            {
              "system": "http://loinc.org",
              "code": "79378-6"
            }
          ]
        },
        "subject": {
          "reference": "Patient/GenV2-TC-Patient",
          "display": "GenV2-TC Example Patient"
        },
        "focus": [
          {
            "reference": "Condition/GenV2-TC-Condition",
            "display": "GenV2-TC Example Condition of Interest"
          }
        ]
      }
    },
    {
      "fullUrl": "http://cbsig.chai.gatech.edu/Practitioner-GenV2-TC-Person-Reporting.html",
      "resource": {
        "resourceType": "Practitioner",
        "id": "GenV2-TC-Person-Reporting",
        "meta": {
          "profile": [
            "http://cbsig.chai.gatech.edu/StructureDefinition/cbs-person-reporting-to-cdc"
          ]
        },
        "text": {
          "status": "generated",
          "div": "<div xmlns=\"http://www.w3.org/1999/xhtml\"><p><b>Generated Narrative</b></p><p><b>name</b>: Smith, John</p><p><b>telecom</b>: ph: 444-321-1234, <a href=\"mailto:jsmith@txdoh.org\">jsmith@txdoh.org</a></p></div>"
        },
        "name": [
          {
            "text": "Smith, John",
            "family": "Smith",
            "given": [
              "John"
            ]
          }
        ],
        "telecom": [
          {
            "system": "phone",
            "value": "444-321-1234"
          },
          {
            "system": "email",
            "value": "jsmith@txdoh.org"
          }
        ]
      }
    },
    {
      "fullUrl": "http://cbsig.chai.gatech.edu/Organization-GenV2-TC-Reporting-Source.html",
      "resource": {
        "resourceType": "Organization",
        "id": "GenV2-TC-Reporting-Source",
        "meta": {
          "profile": [
            "http://cbsig.chai.gatech.edu/StructureDefinition/cbs-reporting-source-organization"
          ]
        },
        "text": {
          "status": "generated",
          "div": "<div xmlns=\"http://www.w3.org/1999/xhtml\"><p><b>Generated Narrative</b></p><p><b>type</b>: <span title=\"Codes: {http://terminology.hl7.org/CodeSystem/v2-0406 1}\">Hospital</span></p><p><b>name</b>: Reporting Source</p><p><b>address</b>: 77018 </p></div>"
        },
        "type": [
          {
            "coding": [
              {
                "system": "http://terminology.hl7.org/CodeSystem/v2-0406",
                "code": "1",
                "display": "Hospital"
              }
            ]
          }
        ],
        "name": "Reporting Source",
        "address": [
          {
            "postalCode": "77018"
          }
        ]
      }
    },
    {
      "fullUrl": "http://cbsig.chai.gatech.edu/Observation-GenV2-TC-CNP.html",
      "resource": {
        "resourceType": "Observation",
        "id": "GenV2-TC-CNP",
        "meta": {
          "profile": [
            "http://cbsig.chai.gatech.edu/StructureDefinition/cbs-case-notification-panel"
          ]
        },
        "text": {
          "status": "generated",
          "div": "<div xmlns=\"http://www.w3.org/1999/xhtml\"><p><b>Generated Narrative</b></p><p></p><p><b>category</b>: <span title=\"Codes: {http://loinc.org 78000-7}\">Case notification panel [CDC.PHIN]</span></p><p><b>code</b>: <span title=\"Codes: {http://loinc.org 78000-7}\">Case notification panel [CDC.PHIN]</span></p><p><b>subject</b>: <a href=\"#Patient_GenV2-TC-Patient\">GenV2-TC Example Patient. Generated Summary: Local Record ID: GenV2_TC01_Record, Local Subject ID: GenV2_TC01_Subject, Legacy Case Identifier: 48432148S012014, State Case Identifier: TX4321; Zzzzz, Aaaaa; gender: female; birthDate: 1964-05-02; deceased: 2014-03-02</a></p><p><b>hasMember</b>: </p><ul><li><a href=\"#Observation_GenV2-TC-MMWR\">See above (Observation/GenV2-TC-MMWR)</a></li><li><a href=\"#Observation_GenV2-TC-Exposure\">See above (Observation/GenV2-TC-Exposure)</a></li><li><a href=\"#Observation_GenV2-TC-CNP-Member1\">See above (Observation/GenV2-TC-CNP-Member1)</a></li><li><a href=\"#Observation_GenV2-TC-CNP-Member2\">See above (Observation/GenV2-TC-CNP-Member2)</a></li><li><a href=\"#Observation_GenV2-TC-CNP-Member3\">See above (Observation/GenV2-TC-CNP-Member3)</a></li><li><a href=\"#Observation_GenV2-TC-CNP-Member4\">See above (Observation/GenV2-TC-CNP-Member4)</a></li><li><a href=\"#Observation_GenV2-TC-CNP-Member5\">See above (Observation/GenV2-TC-CNP-Member5)</a></li><li><a href=\"#Observation_GenV2-TC-CNP-Member6\">See above (Observation/GenV2-TC-CNP-Member6)</a></li><li><a href=\"#Observation_GenV2-TC-CNP-Member7\">See above (Observation/GenV2-TC-CNP-Member7)</a></li><li><a href=\"#Observation_GenV2-TC-CNP-Member8\">See above (Observation/GenV2-TC-CNP-Member8)</a></li><li><a href=\"#Observation_GenV2-TC-CNP-Member9\">See above (Observation/GenV2-TC-CNP-Member9)</a></li><li><a href=\"#Observation_GenV2-TC-CNP-Member10\">See above (Observation/GenV2-TC-CNP-Member10)</a></li><li><a href=\"#Observation_GenV2-TC-CNP-Member11\">See above (Observation/GenV2-TC-CNP-Member11)</a></li><li><a href=\"#Observation_GenV2-TC-CNP-Member12\">See above (Observation/GenV2-TC-CNP-Member12)</a></li><li><a href=\"#Observation_GenV2-TC-CNP-Member13\">See above (Observation/GenV2-TC-CNP-Member13)</a></li><li><a href=\"#Observation_GenV2-TC-CNP-Member14\">See above (Observation/GenV2-TC-CNP-Member14)</a></li><li><a href=\"#Observation_GenV2-TC-CNP-Member15\">See above (Observation/GenV2-TC-CNP-Member15)</a></li></ul></div>"
        },
        "status": "final",
        "category": [
          {
            "coding": [
              {
                "system": "http://loinc.org",
                "code": "78000-7",
                "display": "Case notification panel [CDC.PHIN]"
              }
            ]
          }
        ],
        "code": {
          "coding": [
            {
              "system": "http://loinc.org",
              "code": "78000-7",
              "display": "Case notification panel [CDC.PHIN]"
            }
          ]
        },
        "subject": {
          "reference": "Patient/GenV2-TC-Patient",
          "display": "GenV2-TC Example Patient"
        },
        "hasMember": [
          {
            "reference": "Observation/GenV2-TC-MMWR"
          },
          {
            "reference": "Observation/GenV2-TC-Exposure"
          },
          {
            "reference": "Observation/GenV2-TC-CNP-Member1"
          },
          {
            "reference": "Observation/GenV2-TC-CNP-Member2"
          },
          {
            "reference": "Observation/GenV2-TC-CNP-Member3"
          },
          {
            "reference": "Observation/GenV2-TC-CNP-Member4"
          },
          {
            "reference": "Observation/GenV2-TC-CNP-Member5"
          },
          {
            "reference": "Observation/GenV2-TC-CNP-Member6"
          },
          {
            "reference": "Observation/GenV2-TC-CNP-Member7"
          },
          {
            "reference": "Observation/GenV2-TC-CNP-Member8"
          },
          {
            "reference": "Observation/GenV2-TC-CNP-Member9"
          },
          {
            "reference": "Observation/GenV2-TC-CNP-Member10"
          },
          {
            "reference": "Observation/GenV2-TC-CNP-Member11"
          },
          {
            "reference": "Observation/GenV2-TC-CNP-Member12"
          },
          {
            "reference": "Observation/GenV2-TC-CNP-Member13"
          },
          {
            "reference": "Observation/GenV2-TC-CNP-Member14"
          },
          {
            "reference": "Observation/GenV2-TC-CNP-Member15"
          }
        ]
      }
    },
    {
      "fullUrl": "http://cbsig.chai.gatech.edu/Observation-GenV2-TC-MMWR.html",
      "resource": {
        "resourceType": "Observation",
        "id": "GenV2-TC-MMWR",
        "meta": {
          "profile": [
            "http://cbsig.chai.gatech.edu/StructureDefinition/cbs-mmwr"
          ]
        },
        "text": {
          "status": "generated",
          "div": "<div xmlns=\"http://www.w3.org/1999/xhtml\"><p><b>Generated Narrative</b></p><p></p><p><b>category</b>: <span title=\"Codes: {http://loinc.org 78000-7}\">Case notification panel [CDC.PHIN]</span></p><p><b>code</b>: <span title=\"Codes: {http://cbsig.chai.gatech.edu/CodeSystem/cbs-temp-code-system MMWR}\">MMWR Week/Year</span></p><p><b>subject</b>: <a href=\"#Patient_GenV2-TC-Patient\">GenV2-TC Example Patient. Generated Summary: Local Record ID: GenV2_TC01_Record, Local Subject ID: GenV2_TC01_Subject, Legacy Case Identifier: 48432148S012014, State Case Identifier: TX4321; Zzzzz, Aaaaa; gender: female; birthDate: 1964-05-02; deceased: 2014-03-02</a></p><blockquote><p><b>component</b></p><p><b>code</b>: <span title=\"Codes: {http://loinc.org 77991-8}\">MMWR Week [CDC.PHIN]</span></p><p><b>value</b>: 9</p></blockquote><blockquote><p><b>component</b></p><p><b>code</b>: <span title=\"Codes: {http://loinc.org 77992-6}\">MMWR Year [CDC.PHIN]</span></p><p><b>value</b>: 2014</p></blockquote></div>"
        },
        "status": "final",
        "category": [
          {
            "coding": [
              {
                "system": "http://loinc.org",
                "code": "78000-7",
                "display": "Case notification panel [CDC.PHIN]"
              }
            ]
          }
        ],
        "code": {
          "coding": [
            {
              "system": "http://cbsig.chai.gatech.edu/CodeSystem/cbs-temp-code-system",
              "code": "MMWR"
            }
          ]
        },
        "subject": {
          "reference": "Patient/GenV2-TC-Patient",
          "display": "GenV2-TC Example Patient"
        },
        "component": [
          {
            "code": {
              "coding": [
                {
                  "system": "http://loinc.org",
                  "code": "77991-8"
                }
              ]
            },
            "valueInteger": 9
          },
          {
            "code": {
              "coding": [
                {
                  "system": "http://loinc.org",
                  "code": "77992-6"
                }
              ]
            },
            "valueInteger": 2014
          }
        ]
      }
    },
    {
      "fullUrl": "http://cbsig.chai.gatech.edu/Observation-GenV2-TC-Exposure.html",
      "resource": {
        "resourceType": "Observation",
        "id": "GenV2-TC-Exposure",
        "meta": {
          "profile": [
            "http://cbsig.chai.gatech.edu/StructureDefinition/cbs-exposure-observation"
          ]
        },
        "text": {
          "status": "generated",
          "div": "<div xmlns=\"http://www.w3.org/1999/xhtml\"><p><b>Generated Narrative</b></p><p></p><p><b>category</b>: <span title=\"Codes: {http://loinc.org 78000-7}\">Case notification panel [CDC.PHIN]</span></p><p><b>code</b>: <span title=\"Codes: {http://cbsig.chai.gatech.edu/CodeSystem/cbs-temp-code-system Location-of-Exposure}\">Location of Exposure</span></p><p><b>subject</b>: <a href=\"#Patient_GenV2-TC-Patient\">GenV2-TC Example Patient. Generated Summary: Local Record ID: GenV2_TC01_Record, Local Subject ID: GenV2_TC01_Subject, Legacy Case Identifier: 48432148S012014, State Case Identifier: TX4321; Zzzzz, Aaaaa; gender: female; birthDate: 1964-05-02; deceased: 2014-03-02</a></p><p><b>focus</b>: <a href=\"#Condition_GenV2-TC-Condition\">GenV2-TC Example Condition of Interest. Generated Summary: <span title=\"Codes: {http://terminology.hl7.org/CodeSystem/condition-clinical inactive}\">Inactive</span>; <span title=\"Codes: {urn:oid:2.16.840.1.114222.4.5.277 11550}\">Hemolytic Uremic Syndrome</span>; onset: 2014-02-24; abatement: 2014-03-02</a></p><blockquote><p><b>component</b></p><p><b>code</b>: <span title=\"Codes: {http://loinc.org 77984-3}\">Country of exposure to illness [Location]</span></p><p><b>value</b>: <span title=\"Codes: {urn:iso:std:iso:3166 USA}\">United States of America</span></p></blockquote><blockquote><p><b>component</b></p><p><b>code</b>: <span title=\"Codes: {http://loinc.org 77985-0}\">State or province of exposure to illness</span></p><p><b>value</b>: <span title=\"Codes: {urn:oid:2.16.840.1.113883.6.92 48}\">Texas</span></p></blockquote><blockquote><p><b>component</b></p><p><b>code</b>: <span title=\"Codes: {http://loinc.org 77986-8}\">City of exposure to illness</span></p><p><b>value</b>: Houston</p></blockquote><blockquote><p><b>component</b></p><p><b>code</b>: <span title=\"Codes: {http://loinc.org 77987-6}\">County of exposure to illness [Location]</span></p><p><b>value</b>: Harris</p></blockquote></div>"
        },
        "status": "final",
        "category": [
          {
            "coding": [
              {
                "system": "http://loinc.org",
                "code": "78000-7",
                "display": "Case notification panel [CDC.PHIN]"
              }
            ]
          }
        ],
        "code": {
          "coding": [
            {
              "system": "http://cbsig.chai.gatech.edu/CodeSystem/cbs-temp-code-system",
              "code": "Location-of-Exposure"
            }
          ]
        },
        "subject": {
          "reference": "Patient/GenV2-TC-Patient",
          "display": "GenV2-TC Example Patient"
        },
        "focus": [
          {
            "reference": "Condition/GenV2-TC-Condition",
            "display": "GenV2-TC Example Condition of Interest"
          }
        ],
        "component": [
          {
            "code": {
              "coding": [
                {
                  "system": "http://loinc.org",
                  "code": "77984-3"
                }
              ]
            },
            "valueCodeableConcept": {
              "coding": [
                {
                  "system": "urn:iso:std:iso:3166",
                  "code": "USA",
                  "display": "United States of America"
                }
              ]
            }
          },
          {
            "code": {
              "coding": [
                {
                  "system": "http://loinc.org",
                  "code": "77985-0"
                }
              ]
            },
            "valueCodeableConcept": {
              "coding": [
                {
                  "system": "urn:oid:2.16.840.1.113883.6.92",
                  "code": "48",
                  "display": "Texas"
                }
              ]
            }
          },
          {
            "code": {
              "coding": [
                {
                  "system": "http://loinc.org",
                  "code": "77986-8"
                }
              ]
            },
            "valueString": "Houston"
          },
          {
            "code": {
              "coding": [
                {
                  "system": "http://loinc.org",
                  "code": "77987-6"
                }
              ]
            },
            "valueString": "Harris"
          }
        ]
      }
    },
    {
      "fullUrl": "http://cbsig.chai.gatech.edu/Observation-GenV2-TC-CNP-Member1.html",
      "resource": {
        "resourceType": "Observation",
        "id": "GenV2-TC-CNP-Member1",
        "meta": {
          "profile": [
            "http://cbsig.chai.gatech.edu/StructureDefinition/cbs-cnp-member"
          ]
        },
        "text": {
          "status": "generated",
          "div": "<div xmlns=\"http://www.w3.org/1999/xhtml\"><p><b>Generated Narrative</b></p><p></p><p><b>category</b>: <span title=\"Codes: {http://loinc.org 78000-7}\">Case notification panel [CDC.PHIN]</span></p><p><b>code</b>: <span title=\"Codes: {http://loinc.org 77965-2}\">Immediate national notifiable condition</span></p><p><b>subject</b>: <a href=\"#Patient_GenV2-TC-Patient\">GenV2-TC Example Patient. Generated Summary: Local Record ID: GenV2_TC01_Record, Local Subject ID: GenV2_TC01_Subject, Legacy Case Identifier: 48432148S012014, State Case Identifier: TX4321; Zzzzz, Aaaaa; gender: female; birthDate: 1964-05-02; deceased: 2014-03-02</a></p><p><b>value</b>: <span title=\"Codes: {http://terminology.hl7.org/CodeSystem/v2-0005 N}\">No</span></p></div>"
        },
        "status": "final",
        "category": [
          {
            "coding": [
              {
                "system": "http://loinc.org",
                "code": "78000-7",
                "display": "Case notification panel [CDC.PHIN]"
              }
            ]
          }
        ],
        "code": {
          "coding": [
            {
              "system": "http://loinc.org",
              "code": "77965-2",
              "display": "Immediate national notifiable condition"
            }
          ]
        },
        "subject": {
          "reference": "Patient/GenV2-TC-Patient",
          "display": "GenV2-TC Example Patient"
        },
        "valueCodeableConcept": {
          "coding": [
            {
              "system": "http://terminology.hl7.org/CodeSystem/v2-0005",
              "code": "N",
              "display": "No"
            }
          ]
        }
      }
    },
    {
      "fullUrl": "http://cbsig.chai.gatech.edu/Observation-GenV2-TC-CNP-Member2.html",
      "resource": {
        "resourceType": "Observation",
        "id": "GenV2-TC-CNP-Member2",
        "meta": {
          "profile": [
            "http://cbsig.chai.gatech.edu/StructureDefinition/cbs-cnp-member"
          ]
        },
        "text": {
          "status": "generated",
          "div": "<div xmlns=\"http://www.w3.org/1999/xhtml\"><p><b>Generated Narrative</b></p><p></p><p><b>category</b>: <span title=\"Codes: {http://loinc.org 78000-7}\">Case notification panel [CDC.PHIN]</span></p><p><b>code</b>: <span title=\"Codes: {http://loinc.org 77966-0}\">Reporting state</span></p><p><b>subject</b>: <a href=\"#Patient_GenV2-TC-Patient\">GenV2-TC Example Patient. Generated Summary: Local Record ID: GenV2_TC01_Record, Local Subject ID: GenV2_TC01_Subject, Legacy Case Identifier: 48432148S012014, State Case Identifier: TX4321; Zzzzz, Aaaaa; gender: female; birthDate: 1964-05-02; deceased: 2014-03-02</a></p><p><b>value</b>: <span title=\"Codes: {urn:oid:2.16.840.1.113883.6.92 48}\">Texas</span></p></div>"
        },
        "status": "final",
        "category": [
          {
            "coding": [
              {
                "system": "http://loinc.org",
                "code": "78000-7",
                "display": "Case notification panel [CDC.PHIN]"
              }
            ]
          }
        ],
        "code": {
          "coding": [
            {
              "system": "http://loinc.org",
              "code": "77966-0",
              "display": "Reporting state"
            }
          ]
        },
        "subject": {
          "reference": "Patient/GenV2-TC-Patient",
          "display": "GenV2-TC Example Patient"
        },
        "valueCodeableConcept": {
          "coding": [
            {
              "system": "urn:oid:2.16.840.1.113883.6.92",
              "code": "48",
              "display": "Texas"
            }
          ]
        }
      }
    },
    {
      "fullUrl": "http://cbsig.chai.gatech.edu/Observation-GenV2-TC-CNP-Member3.html",
      "resource": {
        "resourceType": "Observation",
        "id": "GenV2-TC-CNP-Member3",
        "meta": {
          "profile": [
            "http://cbsig.chai.gatech.edu/StructureDefinition/cbs-cnp-member"
          ]
        },
        "text": {
          "status": "generated",
          "div": "<div xmlns=\"http://www.w3.org/1999/xhtml\"><p><b>Generated Narrative</b></p><p></p><p><b>category</b>: <span title=\"Codes: {http://loinc.org 78000-7}\">Case notification panel [CDC.PHIN]</span></p><p><b>code</b>: <span title=\"Codes: {http://loinc.org 77967-8}\">Reporting county</span></p><p><b>subject</b>: <a href=\"#Patient_GenV2-TC-Patient\">GenV2-TC Example Patient. Generated Summary: Local Record ID: GenV2_TC01_Record, Local Subject ID: GenV2_TC01_Subject, Legacy Case Identifier: 48432148S012014, State Case Identifier: TX4321; Zzzzz, Aaaaa; gender: female; birthDate: 1964-05-02; deceased: 2014-03-02</a></p><p><b>value</b>: <span title=\"Codes: {urn:oid:2.16.840.1.113883.6.93 48201}\">Harris</span></p></div>"
        },
        "status": "final",
        "category": [
          {
            "coding": [
              {
                "system": "http://loinc.org",
                "code": "78000-7",
                "display": "Case notification panel [CDC.PHIN]"
              }
            ]
          }
        ],
        "code": {
          "coding": [
            {
              "system": "http://loinc.org",
              "code": "77967-8",
              "display": "Reporting county"
            }
          ]
        },
        "subject": {
          "reference": "Patient/GenV2-TC-Patient",
          "display": "GenV2-TC Example Patient"
        },
        "valueCodeableConcept": {
          "coding": [
            {
              "system": "urn:oid:2.16.840.1.113883.6.93",
              "code": "48201",
              "display": "Harris"
            }
          ]
        }
      }
    },
    {
      "fullUrl": "http://cbsig.chai.gatech.edu/Observation-GenV2-TC-CNP-Member4.html",
      "resource": {
        "resourceType": "Observation",
        "id": "GenV2-TC-CNP-Member4",
        "meta": {
          "profile": [
            "http://cbsig.chai.gatech.edu/StructureDefinition/cbs-cnp-member"
          ]
        },
        "text": {
          "status": "generated",
          "div": "<div xmlns=\"http://www.w3.org/1999/xhtml\"><p><b>Generated Narrative</b></p><p></p><p><b>category</b>: <span title=\"Codes: {http://loinc.org 78000-7}\">Case notification panel [CDC.PHIN]</span></p><p><b>code</b>: <span title=\"Codes: {http://loinc.org 77968-6}\">National reporting jurisdiction</span></p><p><b>subject</b>: <a href=\"#Patient_GenV2-TC-Patient\">GenV2-TC Example Patient. Generated Summary: Local Record ID: GenV2_TC01_Record, Local Subject ID: GenV2_TC01_Subject, Legacy Case Identifier: 48432148S012014, State Case Identifier: TX4321; Zzzzz, Aaaaa; gender: female; birthDate: 1964-05-02; deceased: 2014-03-02</a></p><p><b>value</b>: <span title=\"Codes: {urn:oid:2.16.840.1.113883.6.92 48}\">Texas</span></p></div>"
        },
        "status": "final",
        "category": [
          {
            "coding": [
              {
                "system": "http://loinc.org",
                "code": "78000-7",
                "display": "Case notification panel [CDC.PHIN]"
              }
            ]
          }
        ],
        "code": {
          "coding": [
            {
              "system": "http://loinc.org",
              "code": "77968-6",
              "display": "National reporting jurisdiction"
            }
          ]
        },
        "subject": {
          "reference": "Patient/GenV2-TC-Patient",
          "display": "GenV2-TC Example Patient"
        },
        "valueCodeableConcept": {
          "coding": [
            {
              "system": "urn:oid:2.16.840.1.113883.6.92",
              "code": "48",
              "display": "Texas"
            }
          ]
        }
      }
    },
    {
      "fullUrl": "http://cbsig.chai.gatech.edu/Observation-GenV2-TC-CNP-Member5.html",
      "resource": {
        "resourceType": "Observation",
        "id": "GenV2-TC-CNP-Member5",
        "meta": {
          "profile": [
            "http://cbsig.chai.gatech.edu/StructureDefinition/cbs-cnp-member"
          ]
        },
        "text": {
          "status": "generated",
          "div": "<div xmlns=\"http://www.w3.org/1999/xhtml\"><p><b>Generated Narrative</b></p><p></p><p><b>category</b>: <span title=\"Codes: {http://loinc.org 78000-7}\">Case notification panel [CDC.PHIN]</span></p><p><b>code</b>: <span title=\"Codes: {http://loinc.org 77969-4}\">Jurisdiction code</span></p><p><b>subject</b>: <a href=\"#Patient_GenV2-TC-Patient\">GenV2-TC Example Patient. Generated Summary: Local Record ID: GenV2_TC01_Record, Local Subject ID: GenV2_TC01_Subject, Legacy Case Identifier: 48432148S012014, State Case Identifier: TX4321; Zzzzz, Aaaaa; gender: female; birthDate: 1964-05-02; deceased: 2014-03-02</a></p><p><b>value</b>: S01</p></div>"
        },
        "status": "final",
        "category": [
          {
            "coding": [
              {
                "system": "http://loinc.org",
                "code": "78000-7",
                "display": "Case notification panel [CDC.PHIN]"
              }
            ]
          }
        ],
        "code": {
          "coding": [
            {
              "system": "http://loinc.org",
              "code": "77969-4",
              "display": "Jurisdiction code"
            }
          ]
        },
        "subject": {
          "reference": "Patient/GenV2-TC-Patient",
          "display": "GenV2-TC Example Patient"
        },
        "valueString": "S01"
      }
    },
    {
      "fullUrl": "http://cbsig.chai.gatech.edu/Observation-GenV2-TC-CNP-Member6.html",
      "resource": {
        "resourceType": "Observation",
        "id": "GenV2-TC-CNP-Member6",
        "meta": {
          "profile": [
            "http://cbsig.chai.gatech.edu/StructureDefinition/cbs-cnp-member"
          ]
        },
        "text": {
          "status": "generated",
          "div": "<div xmlns=\"http://www.w3.org/1999/xhtml\"><p><b>Generated Narrative</b></p><p></p><p><b>category</b>: <span title=\"Codes: {http://loinc.org 78000-7}\">Case notification panel [CDC.PHIN]</span></p><p><b>code</b>: <span title=\"Codes: {http://loinc.org 77970-2}\">Date of initial report</span></p><p><b>subject</b>: <a href=\"#Patient_GenV2-TC-Patient\">GenV2-TC Example Patient. Generated Summary: Local Record ID: GenV2_TC01_Record, Local Subject ID: GenV2_TC01_Subject, Legacy Case Identifier: 48432148S012014, State Case Identifier: TX4321; Zzzzz, Aaaaa; gender: female; birthDate: 1964-05-02; deceased: 2014-03-02</a></p><p><b>value</b>: 2014-02-25</p></div>"
        },
        "status": "final",
        "category": [
          {
            "coding": [
              {
                "system": "http://loinc.org",
                "code": "78000-7",
                "display": "Case notification panel [CDC.PHIN]"
              }
            ]
          }
        ],
        "code": {
          "coding": [
            {
              "system": "http://loinc.org",
              "code": "77970-2",
              "display": "Date of initial report"
            }
          ]
        },
        "subject": {
          "reference": "Patient/GenV2-TC-Patient",
          "display": "GenV2-TC Example Patient"
        },
        "valueDateTime": "2014-02-25"
      }
    },
    {
      "fullUrl": "http://cbsig.chai.gatech.edu/Observation-GenV2-TC-CNP-Member7.html",
      "resource": {
        "resourceType": "Observation",
        "id": "GenV2-TC-CNP-Member7",
        "meta": {
          "profile": [
            "http://cbsig.chai.gatech.edu/StructureDefinition/cbs-cnp-member"
          ]
        },
        "text": {
          "status": "generated",
          "div": "<div xmlns=\"http://www.w3.org/1999/xhtml\"><p><b>Generated Narrative</b></p><p></p><p><b>category</b>: <span title=\"Codes: {http://loinc.org 78000-7}\">Case notification panel [CDC.PHIN]</span></p><p><b>code</b>: <span title=\"Codes: {http://loinc.org 77972-8}\">Earliest date reported to county</span></p><p><b>subject</b>: <a href=\"#Patient_GenV2-TC-Patient\">GenV2-TC Example Patient. Generated Summary: Local Record ID: GenV2_TC01_Record, Local Subject ID: GenV2_TC01_Subject, Legacy Case Identifier: 48432148S012014, State Case Identifier: TX4321; Zzzzz, Aaaaa; gender: female; birthDate: 1964-05-02; deceased: 2014-03-02</a></p><p><b>value</b>: 2014-02-25</p></div>"
        },
        "status": "final",
        "category": [
          {
            "coding": [
              {
                "system": "http://loinc.org",
                "code": "78000-7",
                "display": "Case notification panel [CDC.PHIN]"
              }
            ]
          }
        ],
        "code": {
          "coding": [
            {
              "system": "http://loinc.org",
              "code": "77972-8",
              "display": "Earliest date reported to county"
            }
          ]
        },
        "subject": {
          "reference": "Patient/GenV2-TC-Patient",
          "display": "GenV2-TC Example Patient"
        },
        "valueDateTime": "2014-02-25"
      }
    },
    {
      "fullUrl": "http://cbsig.chai.gatech.edu/Observation-GenV2-TC-CNP-Member8.html",
      "resource": {
        "resourceType": "Observation",
        "id": "GenV2-TC-CNP-Member8",
        "meta": {
          "profile": [
            "http://cbsig.chai.gatech.edu/StructureDefinition/cbs-cnp-member"
          ]
        },
        "text": {
          "status": "generated",
          "div": "<div xmlns=\"http://www.w3.org/1999/xhtml\"><p><b>Generated Narrative</b></p><p></p><p><b>category</b>: <span title=\"Codes: {http://loinc.org 78000-7}\">Case notification panel [CDC.PHIN]</span></p><p><b>code</b>: <span title=\"Codes: {http://loinc.org 77973-6}\">Earliest date reported to state</span></p><p><b>subject</b>: <a href=\"#Patient_GenV2-TC-Patient\">GenV2-TC Example Patient. Generated Summary: Local Record ID: GenV2_TC01_Record, Local Subject ID: GenV2_TC01_Subject, Legacy Case Identifier: 48432148S012014, State Case Identifier: TX4321; Zzzzz, Aaaaa; gender: female; birthDate: 1964-05-02; deceased: 2014-03-02</a></p><p><b>value</b>: 2014-02-25</p></div>"
        },
        "status": "final",
        "category": [
          {
            "coding": [
              {
                "system": "http://loinc.org",
                "code": "78000-7",
                "display": "Case notification panel [CDC.PHIN]"
              }
            ]
          }
        ],
        "code": {
          "coding": [
            {
              "system": "http://loinc.org",
              "code": "77973-6",
              "display": "Earliest date reported to state"
            }
          ]
        },
        "subject": {
          "reference": "Patient/GenV2-TC-Patient",
          "display": "GenV2-TC Example Patient"
        },
        "valueDateTime": "2014-02-25"
      }
    },
    {
      "fullUrl": "http://cbsig.chai.gatech.edu/Observation-GenV2-TC-CNP-Member9.html",
      "resource": {
        "resourceType": "Observation",
        "id": "GenV2-TC-CNP-Member9",
        "meta": {
          "profile": [
            "http://cbsig.chai.gatech.edu/StructureDefinition/cbs-cnp-member"
          ]
        },
        "text": {
          "status": "generated",
          "div": "<div xmlns=\"http://www.w3.org/1999/xhtml\"><p><b>Generated Narrative</b></p><p></p><p><b>category</b>: <span title=\"Codes: {http://loinc.org 78000-7}\">Case notification panel [CDC.PHIN]</span></p><p><b>code</b>: <span title=\"Codes: {http://loinc.org 77979-3}\">Case investigation start date</span></p><p><b>subject</b>: <a href=\"#Patient_GenV2-TC-Patient\">GenV2-TC Example Patient. Generated Summary: Local Record ID: GenV2_TC01_Record, Local Subject ID: GenV2_TC01_Subject, Legacy Case Identifier: 48432148S012014, State Case Identifier: TX4321; Zzzzz, Aaaaa; gender: female; birthDate: 1964-05-02; deceased: 2014-03-02</a></p><p><b>value</b>: 2014-02-25</p></div>"
        },
        "status": "final",
        "category": [
          {
            "coding": [
              {
                "system": "http://loinc.org",
                "code": "78000-7",
                "display": "Case notification panel [CDC.PHIN]"
              }
            ]
          }
        ],
        "code": {
          "coding": [
            {
              "system": "http://loinc.org",
              "code": "77979-3",
              "display": "Case investigation start date"
            }
          ]
        },
        "subject": {
          "reference": "Patient/GenV2-TC-Patient",
          "display": "GenV2-TC Example Patient"
        },
        "valueDateTime": "2014-02-25"
      }
    },
    {
      "fullUrl": "http://cbsig.chai.gatech.edu/Observation-GenV2-TC-CNP-Member10.html",
      "resource": {
        "resourceType": "Observation",
        "id": "GenV2-TC-CNP-Member10",
        "meta": {
          "profile": [
            "http://cbsig.chai.gatech.edu/StructureDefinition/cbs-cnp-member"
          ]
        },
        "text": {
          "status": "generated",
          "div": "<div xmlns=\"http://www.w3.org/1999/xhtml\"><p><b>Generated Narrative</b></p><p></p><p><b>category</b>: <span title=\"Codes: {http://loinc.org 78000-7}\">Case notification panel [CDC.PHIN]</span></p><p><b>code</b>: <span title=\"Codes: {http://cbsig.chai.gatech.edu/CodeSystem/cbs-temp-code-system case-outbreak}\">Case Outbreak Name and Indicator</span></p><p><b>subject</b>: <a href=\"#Patient_GenV2-TC-Patient\">GenV2-TC Example Patient. Generated Summary: Local Record ID: GenV2_TC01_Record, Local Subject ID: GenV2_TC01_Subject, Legacy Case Identifier: 48432148S012014, State Case Identifier: TX4321; Zzzzz, Aaaaa; gender: female; birthDate: 1964-05-02; deceased: 2014-03-02</a></p><blockquote><p><b>component</b></p><p><b>code</b>: <span title=\"Codes: {http://loinc.org 77980-1}\">Case is associated with a known outbreak</span></p><p><b>value</b>: <span title=\"Codes: {http://terminology.hl7.org/CodeSystem/v2-0005 Y}\">Yes</span></p></blockquote><blockquote><p><b>component</b></p><p><b>code</b>: <span title=\"Codes: {http://loinc.org 77981-9}\">Case outbreak name</span></p><p><b>value</b>: HANSENOUTB1</p></blockquote></div>"
        },
        "status": "final",
        "category": [
          {
            "coding": [
              {
                "system": "http://loinc.org",
                "code": "78000-7",
                "display": "Case notification panel [CDC.PHIN]"
              }
            ]
          }
        ],
        "code": {
          "coding": [
            {
              "system": "http://cbsig.chai.gatech.edu/CodeSystem/cbs-temp-code-system",
              "code": "case-outbreak",
              "display": "Case Outbreak Name and Indicator"
            }
          ]
        },
        "subject": {
          "reference": "Patient/GenV2-TC-Patient",
          "display": "GenV2-TC Example Patient"
        },
        "component": [
          {
            "code": {
              "coding": [
                {
                  "system": "http://loinc.org",
                  "code": "77980-1"
                }
              ]
            },
            "valueCodeableConcept": {
              "coding": [
                {
                  "system": "http://terminology.hl7.org/CodeSystem/v2-0005",
                  "code": "Y",
                  "display": "Yes"
                }
              ]
            }
          },
          {
            "code": {
              "coding": [
                {
                  "system": "http://loinc.org",
                  "code": "77981-9"
                }
              ]
            },
            "valueString": "HANSENOUTB1"
          }
        ]
      }
    },
    {
      "fullUrl": "http://cbsig.chai.gatech.edu/Observation-GenV2-TC-CNP-Member11.html",
      "resource": {
        "resourceType": "Observation",
        "id": "GenV2-TC-CNP-Member11",
        "meta": {
          "profile": [
            "http://cbsig.chai.gatech.edu/StructureDefinition/cbs-cnp-member"
          ]
        },
        "text": {
          "status": "generated",
          "div": "<div xmlns=\"http://www.w3.org/1999/xhtml\"><p><b>Generated Narrative</b></p><p></p><p><b>category</b>: <span title=\"Codes: {http://loinc.org 78000-7}\">Case notification panel [CDC.PHIN]</span></p><p><b>code</b>: <span title=\"Codes: {http://loinc.org 77988-4}\">Binational reporting criteria [CDC.PHIN]</span></p><p><b>subject</b>: <a href=\"#Patient_GenV2-TC-Patient\">GenV2-TC Example Patient. Generated Summary: Local Record ID: GenV2_TC01_Record, Local Subject ID: GenV2_TC01_Subject, Legacy Case Identifier: 48432148S012014, State Case Identifier: TX4321; Zzzzz, Aaaaa; gender: female; birthDate: 1964-05-02; deceased: 2014-03-02</a></p><p><b>value</b>: <span title=\"Codes: {urn:oid:2.16.840.1.114222.4.5.274 PHC1140}\">Exposure to suspected product from Canada or Mexico</span></p></div>"
        },
        "status": "final",
        "category": [
          {
            "coding": [
              {
                "system": "http://loinc.org",
                "code": "78000-7",
                "display": "Case notification panel [CDC.PHIN]"
              }
            ]
          }
        ],
        "code": {
          "coding": [
            {
              "system": "http://loinc.org",
              "code": "77988-4",
              "display": "Binational reporting criteria [CDC.PHIN]"
            }
          ]
        },
        "subject": {
          "reference": "Patient/GenV2-TC-Patient",
          "display": "GenV2-TC Example Patient"
        },
        "valueCodeableConcept": {
          "coding": [
            {
              "system": "urn:oid:2.16.840.1.114222.4.5.274",
              "code": "PHC1140",
              "display": "Exposure to suspected product from Canada or Mexico"
            }
          ]
        }
      }
    },
    {
      "fullUrl": "http://cbsig.chai.gatech.edu/Observation-GenV2-TC-CNP-Member12.html",
      "resource": {
        "resourceType": "Observation",
        "id": "GenV2-TC-CNP-Member12",
        "meta": {
          "profile": [
            "http://cbsig.chai.gatech.edu/StructureDefinition/cbs-cnp-member"
          ]
        },
        "text": {
          "status": "generated",
          "div": "<div xmlns=\"http://www.w3.org/1999/xhtml\"><p><b>Generated Narrative</b></p><p></p><p><b>category</b>: <span title=\"Codes: {http://loinc.org 78000-7}\">Case notification panel [CDC.PHIN]</span></p><p><b>code</b>: <span title=\"Codes: {http://loinc.org 77989-2}\">Disease transmission mode</span></p><p><b>subject</b>: <a href=\"#Patient_GenV2-TC-Patient\">GenV2-TC Example Patient. Generated Summary: Local Record ID: GenV2_TC01_Record, Local Subject ID: GenV2_TC01_Subject, Legacy Case Identifier: 48432148S012014, State Case Identifier: TX4321; Zzzzz, Aaaaa; gender: female; birthDate: 1964-05-02; deceased: 2014-03-02</a></p><p><b>value</b>: <span title=\"Codes: {http://snomed.info/sct 416086007}\">Food-borne transmission</span></p></div>"
        },
        "status": "final",
        "category": [
          {
            "coding": [
              {
                "system": "http://loinc.org",
                "code": "78000-7",
                "display": "Case notification panel [CDC.PHIN]"
              }
            ]
          }
        ],
        "code": {
          "coding": [
            {
              "system": "http://loinc.org",
              "code": "77989-2",
              "display": "Disease transmission mode"
            }
          ]
        },
        "subject": {
          "reference": "Patient/GenV2-TC-Patient",
          "display": "GenV2-TC Example Patient"
        },
        "valueCodeableConcept": {
          "coding": [
            {
              "system": "http://snomed.info/sct",
              "code": "416086007",
              "display": "Food-borne transmission"
            }
          ]
        }
      }
    },
    {
      "fullUrl": "http://cbsig.chai.gatech.edu/Observation-GenV2-TC-CNP-Member13.html",
      "resource": {
        "resourceType": "Observation",
        "id": "GenV2-TC-CNP-Member13",
        "meta": {
          "profile": [
            "http://cbsig.chai.gatech.edu/StructureDefinition/cbs-cnp-member"
          ]
        },
        "text": {
          "status": "generated",
          "div": "<div xmlns=\"http://www.w3.org/1999/xhtml\"><p><b>Generated Narrative</b></p><p></p><p><b>category</b>: <span title=\"Codes: {http://loinc.org 78000-7}\">Case notification panel [CDC.PHIN]</span></p><p><b>code</b>: <span title=\"Codes: {http://loinc.org 77995-9}\">Date of first report to public health department</span></p><p><b>subject</b>: <a href=\"#Patient_GenV2-TC-Patient\">GenV2-TC Example Patient. Generated Summary: Local Record ID: GenV2_TC01_Record, Local Subject ID: GenV2_TC01_Subject, Legacy Case Identifier: 48432148S012014, State Case Identifier: TX4321; Zzzzz, Aaaaa; gender: female; birthDate: 1964-05-02; deceased: 2014-03-02</a></p><p><b>value</b>: 2014-02-25</p></div>"
        },
        "status": "final",
        "category": [
          {
            "coding": [
              {
                "system": "http://loinc.org",
                "code": "78000-7",
                "display": "Case notification panel [CDC.PHIN]"
              }
            ]
          }
        ],
        "code": {
          "coding": [
            {
              "system": "http://loinc.org",
              "code": "77995-9",
              "display": "Date of first report to public health department"
            }
          ]
        },
        "subject": {
          "reference": "Patient/GenV2-TC-Patient",
          "display": "GenV2-TC Example Patient"
        },
        "valueDateTime": "2014-02-25"
      }
    },
    {
      "fullUrl": "http://cbsig.chai.gatech.edu/Observation-GenV2-TC-CNP-Member14.html",
      "resource": {
        "resourceType": "Observation",
        "id": "GenV2-TC-CNP-Member14",
        "meta": {
          "profile": [
            "http://cbsig.chai.gatech.edu/StructureDefinition/cbs-cnp-member"
          ]
        },
        "text": {
          "status": "generated",
          "div": "<div xmlns=\"http://www.w3.org/1999/xhtml\"><p><b>Generated Narrative</b></p><p></p><p><b>category</b>: <span title=\"Codes: {http://loinc.org 78000-7}\">Case notification panel [CDC.PHIN]</span></p><p><b>code</b>: <span title=\"Codes: {http://loinc.org 77996-7}\">Pregnancy status at time of illness or condition</span></p><p><b>subject</b>: <a href=\"#Patient_GenV2-TC-Patient\">GenV2-TC Example Patient. Generated Summary: Local Record ID: GenV2_TC01_Record, Local Subject ID: GenV2_TC01_Subject, Legacy Case Identifier: 48432148S012014, State Case Identifier: TX4321; Zzzzz, Aaaaa; gender: female; birthDate: 1964-05-02; deceased: 2014-03-02</a></p><p><b>value</b>: <span title=\"Codes: {http://terminology.hl7.org/CodeSystem/v2-0532 N}\">No</span></p></div>"
        },
        "status": "final",
        "category": [
          {
            "coding": [
              {
                "system": "http://loinc.org",
                "code": "78000-7",
                "display": "Case notification panel [CDC.PHIN]"
              }
            ]
          }
        ],
        "code": {
          "coding": [
            {
              "system": "http://loinc.org",
              "code": "77996-7",
              "display": "Pregnancy status at time of illness or condition"
            }
          ]
        },
        "subject": {
          "reference": "Patient/GenV2-TC-Patient",
          "display": "GenV2-TC Example Patient"
        },
        "valueCodeableConcept": {
          "coding": [
            {
              "system": "http://terminology.hl7.org/CodeSystem/v2-0532",
              "code": "N",
              "display": "No"
            }
          ]
        }
      }
    },
    {
      "fullUrl": "http://cbsig.chai.gatech.edu/Observation-GenV2-TC-CNP-Member15.html",
      "resource": {
        "resourceType": "Observation",
        "id": "GenV2-TC-CNP-Member15",
        "meta": {
          "profile": [
            "http://cbsig.chai.gatech.edu/StructureDefinition/cbs-cnp-member"
          ]
        },
        "text": {
          "status": "generated",
          "div": "<div xmlns=\"http://www.w3.org/1999/xhtml\"><p><b>Generated Narrative</b></p><p></p><p><b>category</b>: <span title=\"Codes: {http://loinc.org 78000-7}\">Case notification panel [CDC.PHIN]</span></p><p><b>code</b>: <span title=\"Codes: {http://loinc.org 77998-3}\">Age at time of case investigation</span></p><p><b>subject</b>: <a href=\"#Patient_GenV2-TC-Patient\">GenV2-TC Example Patient. Generated Summary: Local Record ID: GenV2_TC01_Record, Local Subject ID: GenV2_TC01_Subject, Legacy Case Identifier: 48432148S012014, State Case Identifier: TX4321; Zzzzz, Aaaaa; gender: female; birthDate: 1964-05-02; deceased: 2014-03-02</a></p><p><b>value</b>: 49</p></div>"
        },
        "status": "final",
        "category": [
          {
            "coding": [
              {
                "system": "http://loinc.org",
                "code": "78000-7",
                "display": "Case notification panel [CDC.PHIN]"
              }
            ]
          }
        ],
        "code": {
          "coding": [
            {
              "system": "http://loinc.org",
              "code": "77998-3",
              "display": "Age at time of case investigation"
            }
          ]
        },
        "subject": {
          "reference": "Patient/GenV2-TC-Patient",
          "display": "GenV2-TC Example Patient"
        },
        "valueInteger": 49
      }
    }
  ]
}