{
  "resourceType": "Bundle",
  "id": "HAICA-TC-Document",
  "meta": {
    "profile": [
      "http://cbsig.chai.gatech.edu/StructureDefinition/cbs-document-bundle"
    ]
  },
  "identifier": {
    "type": {
      "coding": [
        {
          "system": "http://cbsig.chai.gatech.edu/CodeSystem/cbs-temp-code-system",
          "code": "Local-Record-ID",
          "display": "Local Record ID"
        }
      ],
      "text": "Local Record ID"
    },
    "system": "urn:temp:national-reporting-jurisdiction:48",
    "value": "C_auris_02"
  },
  "type": "document",
  "timestamp": "2018-11-26T00:00:00Z",
  "entry": [
    {
      "fullUrl": "Composition/HAICA-TC-Composition",
      "resource": {
        "resourceType": "Composition",
        "id": "HAICA-TC-Composition",
        "meta": {
          "profile": [
            "http://cbsig.chai.gatech.edu/StructureDefinition/cbs-composition"
          ]
        },
        "text": {
          "status": "generated",
          "div": "<div xmlns=\"http://www.w3.org/1999/xhtml\"><p><b>Generated Narrative</b></p><div style=\"display: inline-block; background-color: #d9e0e7; padding: 6px; margin: 4px; border: 1px solid #8da1b4; border-radius: 5px; line-height: 60%\"><p style=\"margin-bottom: 0px\">Resource \"HAICA-TC-Composition\" </p><p style=\"margin-bottom: 0px\">Profile: <a href=\"StructureDefinition-cbs-composition.html\">Case Based Surveillance Composition Profile</a></p></div><p><b>status</b>: final</p><p><b>type</b>: Public health Case report <span style=\"background: LightGoldenRodYellow; margin: 4px; border: 1px solid khaki\"> (<a href=\"https://loinc.org/\">LOINC</a>#55751-2)</span></p><p><b>date</b>: 2018-11-26</p><p><b>author</b>: <a href=\"#Organization_HAICA-TC-Reporting-Source\">See above (Organization/HAICA-TC-Reporting-Source)</a></p><p><b>title</b>: Case Based Surveillance Composition</p></div>"
        },
        "status": "final",
        "type": {
          "coding": [
            {
              "system": "http://loinc.org",
              "code": "55751-2"
            }
          ]
        },
        "subject": {
          "reference": "Patient/HAICA-TC-Patient"
        },
        "date": "2018-11-26",
        "author": [
          {
            "reference": "Organization/HAICA-TC-Reporting-Source"
          }
        ],
        "title": "Case Based Surveillance Composition",
        "section": [
          {
            "title": "Condition of Interest",
            "entry": [
              {
                "reference": "Condition/HAICA-TC-Condition"
              }
            ]
          },
          {
            "title": "Case Notification Panel",
            "entry": [
              {
                "reference": "Observation/HAICA-TC-CNP"
              }
            ],
            "section": [
              {
                "entry": [
                  {
                    "reference": "Observation/HAICA-TC-MMWR"
                  },
                  {
                    "reference": "Observation/HAICA-TC-CNP-Member1"
                  },
                  {
                    "reference": "Observation/HAICA-TC-CNP-Member2"
                  },
                  {
                    "reference": "Observation/HAICA-TC-CNP-Member3"
                  },
                  {
                    "reference": "Observation/HAICA-TC-CNP-Member4"
                  },
                  {
                    "reference": "Observation/HAICA-TC-CNP-Member5"
                  },
                  {
                    "reference": "Observation/HAICA-TC-CNP-Member6"
                  }
                ]
              }
            ]
          },
          {
            "title": "History of Encounters (Hospitalizations)",
            "entry": [
              {
                "reference": "Encounter/HAICA-TC-Hospitalization"
              }
            ]
          },
          {
            "title": "Reporting Entities",
            "entry": [
              {
                "reference": "Organization/HAICA-TC-Reporting-Source"
              }
            ]
          },
          {
            "title": "Laboratory Related Resources",
            "entry": [
              {
                "reference": "DiagnosticReport/HAICA-TC-Lab-DiagnosticReport"
              },
              {
                "reference": "Observation/HAICA-TC-Lab-Observation"
              },
              {
                "reference": "Specimen/HAICA-TC-Specimen"
              }
            ]
          }
        ]
      }
    },
    {
      "fullUrl": "Patient/HAICA-TC-Patient",
      "resource": {
        "resourceType": "Patient",
        "id": "HAICA-TC-Patient",
        "meta": {
          "profile": [
            "http://cbsig.chai.gatech.edu/StructureDefinition/us-cbs-patient"
          ]
        },
        "text": {
          "status": "extensions",
          "div": "<div xmlns=\"http://www.w3.org/1999/xhtml\"><p><b>Generated Narrative</b></p><div style=\"display: inline-block; background-color: #d9e0e7; padding: 6px; margin: 4px; border: 1px solid #8da1b4; border-radius: 5px; line-height: 60%\"><p style=\"margin-bottom: 0px\">Resource \"HAICA-TC-Patient\" </p><p style=\"margin-bottom: 0px\">Profile: <a href=\"StructureDefinition-us-cbs-patient.html\">US Case Based Surveillance Patient Profile</a></p></div><blockquote><p><b>US Core Race Extension</b></p><p><b>value</b>: White (Details: urn:oid:2.16.840.1.113883.6.238 code 2106-3 = 'White', stated as 'White')</p><p><b>value</b>: Mixed</p></blockquote><blockquote><p><b>US Core Ethnicity Extension</b></p><p><b>value</b>: Hispanic or Latino (Details: urn:oid:2.16.840.1.113883.6.238 code 2135-2 = 'Hispanic or Latino', stated as 'Hispanic or Latino')</p><p><b>value</b>: Hispanic or Latino</p></blockquote><p><b>US Core Birth Sex Extension</b>: F</p><p><b>Birth Place</b>: USA </p><p><b>genderIdentity</b>: female <span style=\"background: LightGoldenRodYellow; margin: 4px; border: 1px solid khaki\"> (<a href=\"http://hl7.org/fhir/R4/codesystem-gender-identity.html\">Gender identity</a>#female)</span></p><p><b>identifier</b>: Local Record ID: C_auris_02, Local Subject ID: C_auris_PAT_02</p><p><b>name</b>: </p><p><b>telecom</b>: </p><p><b style=\"color: maroon\">Exception generating Narrative: Cannot invoke \"String.startsWith(String)\" because the return value of \"org.hl7.fhir.r5.model.ContactPoint.getValue()\" is null</b></p></div>"
        },
        "extension": [
          {
            "extension": [
              {
                "url": "ombCategory",
                "valueCoding": {
                  "system": "urn:oid:2.16.840.1.113883.6.238",
                  "code": "2106-3",
                  "display": "White"
                }
              },
              {
                "url": "text",
                "valueString": "Mixed"
              }
            ],
            "url": "http://hl7.org/fhir/us/core/StructureDefinition/us-core-race"
          },
          {
            "extension": [
              {
                "url": "ombCategory",
                "valueCoding": {
                  "system": "urn:oid:2.16.840.1.113883.6.238",
                  "code": "2135-2",
                  "display": "Hispanic or Latino"
                }
              },
              {
                "url": "text",
                "valueString": "Hispanic or Latino"
              }
            ],
            "url": "http://hl7.org/fhir/us/core/StructureDefinition/us-core-ethnicity"
          },
          {
            "url": "http://hl7.org/fhir/us/core/StructureDefinition/us-core-birthsex",
            "valueCode": "F"
          },
          {
            "url": "http://hl7.org/fhir/StructureDefinition/patient-birthPlace",
            "valueAddress": {
              "country": "USA"
            }
          },
          {
            "url": "http://hl7.org/fhir/StructureDefinition/patient-genderIdentity",
            "valueCodeableConcept": {
              "coding": [
                {
                  "system": "http://hl7.org/fhir/gender-identity",
                  "code": "female"
                }
              ]
            }
          }
        ],
        "identifier": [
          {
            "type": {
              "coding": [
                {
                  "system": "http://cbsig.chai.gatech.edu/CodeSystem/cbs-temp-code-system",
                  "code": "Local-Record-ID",
                  "display": "Local Record ID"
                }
              ],
              "text": "Local Record ID"
            },
            "system": "urn:temp:national-reporting-jurisdiction:48",
            "value": "C_auris_02"
          },
          {
            "type": {
              "coding": [
                {
                  "system": "http://cbsig.chai.gatech.edu/CodeSystem/cbs-temp-code-system",
                  "code": "Local-Subject-ID",
                  "display": "Local Subject ID"
                }
              ],
              "text": "Local Subject ID"
            },
            "system": "urn:temp:national-reporting-jurisdiction:48",
            "value": "C_auris_PAT_02"
          }
        ],
        "name": [
          {
            "extension": [
              {
                "url": "http://hl7.org/fhir/StructureDefinition/data-absent-reason",
                "valueCode": "masked"
              }
            ]
          }
        ],
        "telecom": [
          {
            "system": "phone",
            "_value": {
              "extension": [
                {
                  "url": "http://hl7.org/fhir/StructureDefinition/data-absent-reason",
                  "valueCode": "masked"
                }
              ]
            }
          },
          {
            "system": "email",
            "_value": {
              "extension": [
                {
                  "url": "http://hl7.org/fhir/StructureDefinition/data-absent-reason",
                  "valueCode": "masked"
                }
              ]
            }
          }
        ],
        "gender": "female",
        "birthDate": "1940-01-01",
        "address": [
          {
            "use": "home",
            "district": "Cobb",
            "state": "Georgia",
            "postalCode": "30126"
          },
          {
            "extension": [
              {
                "url": "http://cbsig.chai.gatech.edu/StructureDefinition/cbs-cdc-address-use",
                "valueCoding": {
                  "system": "http://cbsig.chai.gatech.edu/CodeSystem/cbs-temp-code-system",
                  "code": "Usual-Residence"
                }
              }
            ],
            "country": "USA"
          }
        ]
      }
    },
    {
      "fullUrl": "Condition/HAICA-TC-Condition",
      "resource": {
        "resourceType": "Condition",
        "id": "HAICA-TC-Condition",
        "meta": {
          "profile": [
            "http://cbsig.chai.gatech.edu/StructureDefinition/us-cbs-condition"
          ]
        },
        "text": {
          "status": "extensions",
          "div": "<div xmlns=\"http://www.w3.org/1999/xhtml\"><p><b>Generated Narrative</b></p><div style=\"display: inline-block; background-color: #d9e0e7; padding: 6px; margin: 4px; border: 1px solid #8da1b4; border-radius: 5px; line-height: 60%\"><p style=\"margin-bottom: 0px\">Resource \"HAICA-TC-Condition\" </p><p style=\"margin-bottom: 0px\">Profile: <a href=\"StructureDefinition-us-cbs-condition.html\">US Case Based Surveillance Condition of Interest Profile</a></p></div><p><b>Case Based Surveillance Case Class Status</b>: Confirmed present <span style=\"background: LightGoldenRodYellow; margin: 4px; border: 1px solid khaki\"> (<a href=\"https://browser.ihtsdotools.org/\">SNOMED CT</a>#410605003)</span></p><p><b>category</b>: Problem List Item <span style=\"background: LightGoldenRodYellow; margin: 4px; border: 1px solid khaki\"> (<a href=\"http://terminology.hl7.org/3.0.0/CodeSystem-condition-category.html\">Condition Category Codes</a>#problem-list-item)</span></p><p><b>code</b>: Candida auris, clinical <span style=\"background: LightGoldenRodYellow; margin: 4px; border: 1px solid khaki\"> (unknown#50263)</span></p><p><b>subject</b>: <a href=\"#Patient_HAICA-TC-Patient\">See above (Patient/HAICA-TC-Patient: HAI-CA TC Example Patient)</a></p><p><b>onset</b>: 2018-11-22</p></div>"
        },
        "extension": [
          {
            "url": "http://cbsig.chai.gatech.edu/StructureDefinition/cbs-case-class-status",
            "valueCodeableConcept": {
              "coding": [
                {
                  "system": "http://snomed.info/sct",
                  "code": "410605003",
                  "display": "Confirmed present"
                }
              ]
            }
          }
        ],
        "category": [
          {
            "coding": [
              {
                "system": "http://terminology.hl7.org/CodeSystem/condition-category",
                "code": "problem-list-item"
              }
            ]
          }
        ],
        "code": {
          "coding": [
            {
              "system": "urn:oid:2.16.840.1.114222.4.5.277",
              "code": "50263",
              "display": "Candida auris, clinical"
            }
          ]
        },
        "subject": {
          "reference": "Patient/HAICA-TC-Patient",
          "display": "HAI-CA TC Example Patient"
        },
        "onsetDateTime": "2018-11-22"
      }
    },
    {
      "fullUrl": "Encounter/HAICA-TC-Hospitalization",
      "resource": {
        "resourceType": "Encounter",
        "id": "HAICA-TC-Hospitalization",
        "meta": {
          "profile": [
            "http://cbsig.chai.gatech.edu/StructureDefinition/us-cbs-hospitalization"
          ]
        },
        "text": {
          "status": "generated",
          "div": "<div xmlns=\"http://www.w3.org/1999/xhtml\"><p><b>Generated Narrative</b></p><div style=\"display: inline-block; background-color: #d9e0e7; padding: 6px; margin: 4px; border: 1px solid #8da1b4; border-radius: 5px; line-height: 60%\"><p style=\"margin-bottom: 0px\">Resource \"HAICA-TC-Hospitalization\" </p><p style=\"margin-bottom: 0px\">Profile: <a href=\"StructureDefinition-us-cbs-hospitalization.html\">US Case Based Surveillance Hospitalization Encounter Profile</a></p></div><p><b>status</b>: unknown</p><p><b>class</b>: inpatient encounter (Details: http://terminology.hl7.org/CodeSystem/v3-ActCode code IMP = 'inpatient encounter', stated as 'inpatient encounter')</p><p><b>type</b>: Inpatient Hospital <span style=\"background: LightGoldenRodYellow; margin: 4px; border: 1px solid khaki\"> (<a href=\"http://terminology.hl7.org/3.0.0/CodeSystem-CPT.html\">Current Procedural Terminology (CPT&reg;)</a>#42628595)</span></p><p><b>subject</b>: <a href=\"#Patient_HAICA-TC-Patient\">See above (Patient/HAICA-TC-Patient: HAI-CA TC Example Patient)</a></p><p><b>period</b>: 2018-11-24 --&gt; (ongoing)</p><p><b>reasonReference</b>: <a href=\"#Condition_HAICA-TC-Condition\">See above (Condition/HAICA-TC-Condition)</a></p><h3>Locations</h3><table class=\"grid\"><tr><td>-</td><td><b>Location</b></td></tr><tr><td>*</td><td><span>: Masked Location</span></td></tr></table></div>"
        },
        "status": "unknown",
        "class": {
          "system": "http://terminology.hl7.org/CodeSystem/v3-ActCode",
          "code": "IMP",
          "display": "inpatient encounter"
        },
        "type": [
          {
            "coding": [
              {
                "system": "http://www.ama-assn.org/go/cpt",
                "code": "42628595",
                "display": "Inpatient Hospital"
              }
            ]
          }
        ],
        "subject": {
          "reference": "Patient/HAICA-TC-Patient",
          "display": "HAI-CA TC Example Patient"
        },
        "period": {
          "start": "2018-11-24"
        },
        "reasonReference": [
          {
            "reference": "Condition/HAICA-TC-Condition"
          }
        ],
        "location": [
          {
            "location": {
              "extension": [
                {
                  "url": "http://hl7.org/fhir/StructureDefinition/data-absent-reason",
                  "valueCode": "masked"
                }
              ],
              "display": "Masked Location"
            }
          }
        ]
      }
    },
    {
      "fullUrl": "Organization/HAICA-TC-Reporting-Source",
      "resource": {
        "resourceType": "Organization",
        "id": "HAICA-TC-Reporting-Source",
        "meta": {
          "profile": [
            "http://cbsig.chai.gatech.edu/StructureDefinition/us-cbs-reporting-source-organization"
          ]
        },
        "text": {
          "status": "generated",
          "div": "<div xmlns=\"http://www.w3.org/1999/xhtml\"><p><b>Generated Narrative</b></p><div style=\"display: inline-block; background-color: #d9e0e7; padding: 6px; margin: 4px; border: 1px solid #8da1b4; border-radius: 5px; line-height: 60%\"><p style=\"margin-bottom: 0px\">Resource \"HAICA-TC-Reporting-Source\" </p><p style=\"margin-bottom: 0px\">Profile: <a href=\"StructureDefinition-us-cbs-reporting-source-organization.html\">US Case Based Surveillance Reporting Source Organization Profile</a></p></div><p><b>active</b>: true</p><p><b>type</b>: Unknown <span style=\"background: LightGoldenRodYellow; margin: 4px; border: 1px solid khaki\"> (<a href=\"http://terminology.hl7.org/3.0.0/CodeSystem-v3-NullFlavor.html\">NullFlavor</a>#UNK)</span></p><p><b>name</b>: Reporting Source</p><p><b>telecom</b>: -unknown-</p><p><b>address</b>: </p><h3>Contacts</h3><table class=\"grid\"><tr><td>-</td><td><b>Name</b></td><td><b>Telecom</b></td></tr><tr><td>*</td><td>von Count, Count</td><td><a href=\"mailto:count_voncount@gadph.gov\">count_voncount@gadph.gov</a></td></tr></table></div>"
        },
        "active": true,
        "type": [
          {
            "coding": [
              {
                "system": "http://terminology.hl7.org/CodeSystem/v3-NullFlavor",
                "code": "UNK",
                "display": "Unknown"
              }
            ]
          }
        ],
        "name": "Reporting Source",
        "telecom": [
          {
            "extension": [
              {
                "url": "http://hl7.org/fhir/StructureDefinition/data-absent-reason",
                "valueCode": "unknown"
              }
            ]
          }
        ],
        "address": [
          {
            "extension": [
              {
                "url": "http://hl7.org/fhir/StructureDefinition/data-absent-reason",
                "valueCode": "unknown"
              }
            ]
          }
        ],
        "contact": [
          {
            "name": {
              "text": "von Count, Count",
              "family": "von Count",
              "given": [
                "Count"
              ]
            },
            "telecom": [
              {
                "system": "email",
                "value": "count_voncount@gadph.gov"
              }
            ]
          }
        ]
      }
    },
    {
      "fullUrl": "Observation/HAICA-TC-CNP",
      "resource": {
        "resourceType": "Observation",
        "id": "HAICA-TC-CNP",
        "meta": {
          "profile": [
            "http://cbsig.chai.gatech.edu/StructureDefinition/cbs-case-notification-panel"
          ]
        },
        "text": {
          "status": "generated",
          "div": "<div xmlns=\"http://www.w3.org/1999/xhtml\"><p><b>Generated Narrative</b></p><div style=\"display: inline-block; background-color: #d9e0e7; padding: 6px; margin: 4px; border: 1px solid #8da1b4; border-radius: 5px; line-height: 60%\"><p style=\"margin-bottom: 0px\">Resource \"HAICA-TC-CNP\" </p><p style=\"margin-bottom: 0px\">Profile: <a href=\"StructureDefinition-cbs-case-notification-panel.html\">Case Based Surveillance Case Notification Panel Profile</a></p></div><p><b>status</b>: final</p><p><b>category</b>: Case notification panel [CDC.PHIN] <span style=\"background: LightGoldenRodYellow; margin: 4px; border: 1px solid khaki\"> (<a href=\"https://loinc.org/\">LOINC</a>#78000-7)</span></p><p><b>code</b>: Case notification panel [CDC.PHIN] <span style=\"background: LightGoldenRodYellow; margin: 4px; border: 1px solid khaki\"> (<a href=\"https://loinc.org/\">LOINC</a>#78000-7)</span></p><p><b>subject</b>: <a href=\"#Patient_HAICA-TC-Patient\">See above (Patient/HAICA-TC-Patient: HAICA-TC Example Patient)</a></p><p><b>hasMember</b>: </p><ul><li><a href=\"#Observation_HAICA-TC-MMWR\">See above (Observation/HAICA-TC-MMWR)</a></li><li><a href=\"#Observation_HAICA-TC-CNP-Member1\">See above (Observation/HAICA-TC-CNP-Member1)</a></li><li><a href=\"#Observation_HAICA-TC-CNP-Member2\">See above (Observation/HAICA-TC-CNP-Member2)</a></li><li><a href=\"#Observation_HAICA-TC-CNP-Member3\">See above (Observation/HAICA-TC-CNP-Member3)</a></li><li><a href=\"#Observation_HAICA-TC-CNP-Member4\">See above (Observation/HAICA-TC-CNP-Member4)</a></li><li><a href=\"#Observation_HAICA-TC-CNP-Member5\">See above (Observation/HAICA-TC-CNP-Member5)</a></li><li><a href=\"#Observation_HAICA-TC-CNP-Member6\">See above (Observation/HAICA-TC-CNP-Member6)</a></li></ul></div>"
        },
        "status": "final",
        "category": [
          {
            "coding": [
              {
                "system": "http://loinc.org",
                "code": "78000-7",
                "display": "Case notification panel [CDC.PHIN]"
              }
            ]
          }
        ],
        "code": {
          "coding": [
            {
              "system": "http://loinc.org",
              "code": "78000-7",
              "display": "Case notification panel [CDC.PHIN]"
            }
          ]
        },
        "subject": {
          "reference": "Patient/HAICA-TC-Patient",
          "display": "HAICA-TC Example Patient"
        },
        "hasMember": [
          {
            "reference": "Observation/HAICA-TC-MMWR"
          },
          {
            "reference": "Observation/HAICA-TC-CNP-Member1"
          },
          {
            "reference": "Observation/HAICA-TC-CNP-Member2"
          },
          {
            "reference": "Observation/HAICA-TC-CNP-Member3"
          },
          {
            "reference": "Observation/HAICA-TC-CNP-Member4"
          },
          {
            "reference": "Observation/HAICA-TC-CNP-Member5"
          },
          {
            "reference": "Observation/HAICA-TC-CNP-Member6"
          }
        ]
      }
    },
    {
      "fullUrl": "Observation/HAICA-TC-MMWR",
      "resource": {
        "resourceType": "Observation",
        "id": "HAICA-TC-MMWR",
        "meta": {
          "profile": [
            "http://cbsig.chai.gatech.edu/StructureDefinition/cbs-mmwr"
          ]
        },
        "text": {
          "status": "generated",
          "div": "<div xmlns=\"http://www.w3.org/1999/xhtml\"><p><b>Generated Narrative</b></p><div style=\"display: inline-block; background-color: #d9e0e7; padding: 6px; margin: 4px; border: 1px solid #8da1b4; border-radius: 5px; line-height: 60%\"><p style=\"margin-bottom: 0px\">Resource \"HAICA-TC-MMWR\" </p><p style=\"margin-bottom: 0px\">Profile: <a href=\"StructureDefinition-cbs-mmwr.html\">Case Based Surveillance Morbidity and Mortality Weekly Report (MMWR) Elements</a></p></div><p><b>status</b>: final</p><p><b>category</b>: Case notification panel [CDC.PHIN] <span style=\"background: LightGoldenRodYellow; margin: 4px; border: 1px solid khaki\"> (<a href=\"https://loinc.org/\">LOINC</a>#78000-7)</span></p><p><b>code</b>: MMWR Week/Year <span style=\"background: LightGoldenRodYellow; margin: 4px; border: 1px solid khaki\"> (<a href=\"CodeSystem-cbs-temp-code-system.html\">Case Based Surveillance temporary/placeholder code system.</a>#MMWR)</span></p><p><b>subject</b>: <a href=\"#Patient_HAICA-TC-Patient\">See above (Patient/HAICA-TC-Patient: HAI-CA TC Example Patient)</a></p><blockquote><p><b>component</b></p><p><b>code</b>: MMWR Week [CDC.PHIN] <span style=\"background: LightGoldenRodYellow; margin: 4px; border: 1px solid khaki\"> (<a href=\"https://loinc.org/\">LOINC</a>#77991-8)</span></p><p><b>value</b>: 48</p></blockquote><blockquote><p><b>component</b></p><p><b>code</b>: MMWR Year [CDC.PHIN] <span style=\"background: LightGoldenRodYellow; margin: 4px; border: 1px solid khaki\"> (<a href=\"https://loinc.org/\">LOINC</a>#77992-6)</span></p><p><b>value</b>: 2018</p></blockquote></div>"
        },
        "status": "final",
        "category": [
          {
            "coding": [
              {
                "system": "http://loinc.org",
                "code": "78000-7",
                "display": "Case notification panel [CDC.PHIN]"
              }
            ]
          }
        ],
        "code": {
          "coding": [
            {
              "system": "http://cbsig.chai.gatech.edu/CodeSystem/cbs-temp-code-system",
              "code": "MMWR"
            }
          ]
        },
        "subject": {
          "reference": "Patient/HAICA-TC-Patient",
          "display": "HAI-CA TC Example Patient"
        },
        "component": [
          {
            "code": {
              "coding": [
                {
                  "system": "http://loinc.org",
                  "code": "77991-8"
                }
              ]
            },
            "valueInteger": 48
          },
          {
            "code": {
              "coding": [
                {
                  "system": "http://loinc.org",
                  "code": "77992-6"
                }
              ]
            },
            "valueInteger": 2018
          }
        ]
      }
    },
    {
      "fullUrl": "Observation/HAICA-TC-CNP-Member1",
      "resource": {
        "resourceType": "Observation",
        "id": "HAICA-TC-CNP-Member1",
        "meta": {
          "profile": [
            "http://cbsig.chai.gatech.edu/StructureDefinition/cbs-reporting-state"
          ]
        },
        "text": {
          "status": "generated",
          "div": "<div xmlns=\"http://www.w3.org/1999/xhtml\"><p><b>Generated Narrative</b></p><div style=\"display: inline-block; background-color: #d9e0e7; padding: 6px; margin: 4px; border: 1px solid #8da1b4; border-radius: 5px; line-height: 60%\"><p style=\"margin-bottom: 0px\">Resource \"HAICA-TC-CNP-Member1\" </p><p style=\"margin-bottom: 0px\">Profile: <a href=\"StructureDefinition-cbs-reporting-state.html\">Case Based Surveillance Reporting State</a></p></div><p><b>status</b>: final</p><p><b>category</b>: Case notification panel [CDC.PHIN] <span style=\"background: LightGoldenRodYellow; margin: 4px; border: 1px solid khaki\"> (<a href=\"https://loinc.org/\">LOINC</a>#78000-7)</span></p><p><b>code</b>: Reporting State <span style=\"background: LightGoldenRodYellow; margin: 4px; border: 1px solid khaki\"> (<a href=\"https://loinc.org/\">LOINC</a>#77966-0)</span></p><p><b>subject</b>: <a href=\"#Patient_HAICA-TC-Patient\">See above (Patient/HAICA-TC-Patient: HAICA-TC Example Patient)</a></p><p><b>value</b>: Georgia <span style=\"background: LightGoldenRodYellow; margin: 4px; border: 1px solid khaki\"> (unknown#13)</span></p></div>"
        },
        "status": "final",
        "category": [
          {
            "coding": [
              {
                "system": "http://loinc.org",
                "code": "78000-7",
                "display": "Case notification panel [CDC.PHIN]"
              }
            ]
          }
        ],
        "code": {
          "coding": [
            {
              "system": "http://loinc.org",
              "code": "77966-0",
              "display": "Reporting State"
            }
          ]
        },
        "subject": {
          "reference": "Patient/HAICA-TC-Patient",
          "display": "HAICA-TC Example Patient"
        },
        "valueCodeableConcept": {
          "coding": [
            {
              "system": "urn:oid:2.16.840.1.113883.6.92",
              "code": "13",
              "display": "Georgia"
            }
          ]
        }
      }
    },
    {
      "fullUrl": "Observation/HAICA-TC-CNP-Member2",
      "resource": {
        "resourceType": "Observation",
        "id": "HAICA-TC-CNP-Member2",
        "meta": {
          "profile": [
            "http://cbsig.chai.gatech.edu/StructureDefinition/cbs-reporting-county"
          ]
        },
        "text": {
          "status": "generated",
          "div": "<div xmlns=\"http://www.w3.org/1999/xhtml\"><p><b>Generated Narrative</b></p><div style=\"display: inline-block; background-color: #d9e0e7; padding: 6px; margin: 4px; border: 1px solid #8da1b4; border-radius: 5px; line-height: 60%\"><p style=\"margin-bottom: 0px\">Resource \"HAICA-TC-CNP-Member2\" </p><p style=\"margin-bottom: 0px\">Profile: <a href=\"StructureDefinition-cbs-reporting-county.html\">Case Based Surveillance Reporting County</a></p></div><p><b>status</b>: final</p><p><b>category</b>: Case notification panel [CDC.PHIN] <span style=\"background: LightGoldenRodYellow; margin: 4px; border: 1px solid khaki\"> (<a href=\"https://loinc.org/\">LOINC</a>#78000-7)</span></p><p><b>code</b>: Reporting County <span style=\"background: LightGoldenRodYellow; margin: 4px; border: 1px solid khaki\"> (<a href=\"https://loinc.org/\">LOINC</a>#77967-8)</span></p><p><b>subject</b>: <a href=\"#Patient_HAICA-TC-Patient\">See above (Patient/HAICA-TC-Patient: HAICA-TC Example Patient)</a></p><p><b>value</b>: Cobb <span style=\"background: LightGoldenRodYellow; margin: 4px; border: 1px solid khaki\"> (unknown#13067)</span></p></div>"
        },
        "status": "final",
        "category": [
          {
            "coding": [
              {
                "system": "http://loinc.org",
                "code": "78000-7",
                "display": "Case notification panel [CDC.PHIN]"
              }
            ]
          }
        ],
        "code": {
          "coding": [
            {
              "system": "http://loinc.org",
              "code": "77967-8",
              "display": "Reporting County"
            }
          ]
        },
        "subject": {
          "reference": "Patient/HAICA-TC-Patient",
          "display": "HAICA-TC Example Patient"
        },
        "valueCodeableConcept": {
          "coding": [
            {
              "system": "urn:oid:2.16.840.1.113883.6.93",
              "code": "13067",
              "display": "Cobb"
            }
          ]
        }
      }
    },
    {
      "fullUrl": "Observation/HAICA-TC-CNP-Member3",
      "resource": {
        "resourceType": "Observation",
        "id": "HAICA-TC-CNP-Member3",
        "meta": {
          "profile": [
            "http://cbsig.chai.gatech.edu/StructureDefinition/cbs-national-reporting-jurisdiction"
          ]
        },
        "text": {
          "status": "generated",
          "div": "<div xmlns=\"http://www.w3.org/1999/xhtml\"><p><b>Generated Narrative</b></p><div style=\"display: inline-block; background-color: #d9e0e7; padding: 6px; margin: 4px; border: 1px solid #8da1b4; border-radius: 5px; line-height: 60%\"><p style=\"margin-bottom: 0px\">Resource \"HAICA-TC-CNP-Member3\" </p><p style=\"margin-bottom: 0px\">Profile: <a href=\"StructureDefinition-cbs-national-reporting-jurisdiction.html\">Case Based Surveillance National Reporting Jurisdiction</a></p></div><p><b>status</b>: final</p><p><b>category</b>: Case notification panel [CDC.PHIN] <span style=\"background: LightGoldenRodYellow; margin: 4px; border: 1px solid khaki\"> (<a href=\"https://loinc.org/\">LOINC</a>#78000-7)</span></p><p><b>code</b>: National Reporting Jurisdiction <span style=\"background: LightGoldenRodYellow; margin: 4px; border: 1px solid khaki\"> (<a href=\"https://loinc.org/\">LOINC</a>#77968-6)</span></p><p><b>subject</b>: <a href=\"#Patient_HAICA-TC-Patient\">See above (Patient/HAICA-TC-Patient: HAICA-TC Example Patient)</a></p><p><b>value</b>: Georgia <span style=\"background: LightGoldenRodYellow; margin: 4px; border: 1px solid khaki\"> (unknown#13)</span></p></div>"
        },
        "status": "final",
        "category": [
          {
            "coding": [
              {
                "system": "http://loinc.org",
                "code": "78000-7",
                "display": "Case notification panel [CDC.PHIN]"
              }
            ]
          }
        ],
        "code": {
          "coding": [
            {
              "system": "http://loinc.org",
              "code": "77968-6",
              "display": "National Reporting Jurisdiction"
            }
          ]
        },
        "subject": {
          "reference": "Patient/HAICA-TC-Patient",
          "display": "HAICA-TC Example Patient"
        },
        "valueCodeableConcept": {
          "coding": [
            {
              "system": "urn:oid:2.16.840.1.113883.6.92",
              "code": "13",
              "display": "Georgia"
            }
          ]
        }
      }
    },
    {
      "fullUrl": "Observation/HAICA-TC-CNP-Member4",
      "resource": {
        "resourceType": "Observation",
        "id": "HAICA-TC-CNP-Member4",
        "meta": {
          "profile": [
            "http://cbsig.chai.gatech.edu/StructureDefinition/cbs-transmission-mode"
          ]
        },
        "text": {
          "status": "generated",
          "div": "<div xmlns=\"http://www.w3.org/1999/xhtml\"><p><b>Generated Narrative</b></p><div style=\"display: inline-block; background-color: #d9e0e7; padding: 6px; margin: 4px; border: 1px solid #8da1b4; border-radius: 5px; line-height: 60%\"><p style=\"margin-bottom: 0px\">Resource \"HAICA-TC-CNP-Member4\" </p><p style=\"margin-bottom: 0px\">Profile: <a href=\"StructureDefinition-cbs-transmission-mode.html\">Case Based Surveillance Transmission Mode</a></p></div><p><b>status</b>: final</p><p><b>category</b>: Case notification panel [CDC.PHIN] <span style=\"background: LightGoldenRodYellow; margin: 4px; border: 1px solid khaki\"> (<a href=\"https://loinc.org/\">LOINC</a>#78000-7)</span></p><p><b>code</b>: Disease transmission mode <span style=\"background: LightGoldenRodYellow; margin: 4px; border: 1px solid khaki\"> (<a href=\"https://loinc.org/\">LOINC</a>#77989-2)</span></p><p><b>subject</b>: <a href=\"#Patient_HAICA-TC-Patient\">See above (Patient/HAICA-TC-Patient: HAICA-TC Example Patient)</a></p><p><b>value</b>: Indeterminate disease transmission mode <span style=\"background: LightGoldenRodYellow; margin: 4px; border: 1px solid khaki\"> (<a href=\"https://browser.ihtsdotools.org/\">SNOMED CT</a>#418375005)</span></p></div>"
        },
        "status": "final",
        "category": [
          {
            "coding": [
              {
                "system": "http://loinc.org",
                "code": "78000-7",
                "display": "Case notification panel [CDC.PHIN]"
              }
            ]
          }
        ],
        "code": {
          "coding": [
            {
              "system": "http://loinc.org",
              "code": "77989-2",
              "display": "Disease transmission mode"
            }
          ]
        },
        "subject": {
          "reference": "Patient/HAICA-TC-Patient",
          "display": "HAICA-TC Example Patient"
        },
        "valueCodeableConcept": {
          "coding": [
            {
              "system": "http://snomed.info/sct",
              "code": "418375005",
              "display": "Indeterminate disease transmission mode"
            }
          ]
        }
      }
    },
    {
      "fullUrl": "Observation/HAICA-TC-CNP-Member5",
      "resource": {
        "resourceType": "Observation",
        "id": "HAICA-TC-CNP-Member5",
        "meta": {
          "profile": [
            "http://cbsig.chai.gatech.edu/StructureDefinition/cbs-pregnancy-status"
          ]
        },
        "text": {
          "status": "generated",
          "div": "<div xmlns=\"http://www.w3.org/1999/xhtml\"><p><b>Generated Narrative</b></p><div style=\"display: inline-block; background-color: #d9e0e7; padding: 6px; margin: 4px; border: 1px solid #8da1b4; border-radius: 5px; line-height: 60%\"><p style=\"margin-bottom: 0px\">Resource \"HAICA-TC-CNP-Member5\" </p><p style=\"margin-bottom: 0px\">Profile: <a href=\"StructureDefinition-cbs-pregnancy-status.html\">Case Based Surveillance Pregnancy Status</a></p></div><p><b>status</b>: final</p><p><b>category</b>: Case notification panel [CDC.PHIN] <span style=\"background: LightGoldenRodYellow; margin: 4px; border: 1px solid khaki\"> (<a href=\"https://loinc.org/\">LOINC</a>#78000-7)</span></p><p><b>code</b>: Pregnancy status at time of illness or condition <span style=\"background: LightGoldenRodYellow; margin: 4px; border: 1px solid khaki\"> (<a href=\"https://loinc.org/\">LOINC</a>#77996-7)</span></p><p><b>subject</b>: <a href=\"#Patient_HAICA-TC-Patient\">See above (Patient/HAICA-TC-Patient: HAICA-TC Example Patient)</a></p><p><b>value</b>: No <span style=\"background: LightGoldenRodYellow; margin: 4px; border: 1px solid khaki\"> (<a href=\"http://terminology.hl7.org/3.0.0/CodeSystem-v2-0532.html\">expandedYes-NoIndicator</a>#N)</span></p></div>"
        },
        "status": "final",
        "category": [
          {
            "coding": [
              {
                "system": "http://loinc.org",
                "code": "78000-7",
                "display": "Case notification panel [CDC.PHIN]"
              }
            ]
          }
        ],
        "code": {
          "coding": [
            {
              "system": "http://loinc.org",
              "code": "77996-7",
              "display": "Pregnancy status at time of illness or condition"
            }
          ]
        },
        "subject": {
          "reference": "Patient/HAICA-TC-Patient",
          "display": "HAICA-TC Example Patient"
        },
        "valueCodeableConcept": {
          "coding": [
            {
              "system": "http://terminology.hl7.org/CodeSystem/v2-0532",
              "code": "N"
            }
          ]
        }
      }
    },
    {
      "fullUrl": "Observation/HAICA-TC-CNP-Member6",
      "resource": {
        "resourceType": "Observation",
        "id": "HAICA-TC-CNP-Member6",
        "meta": {
          "profile": [
            "http://cbsig.chai.gatech.edu/StructureDefinition/cbs-age-at-investigation"
          ]
        },
        "text": {
          "status": "generated",
          "div": "<div xmlns=\"http://www.w3.org/1999/xhtml\"><p><b>Generated Narrative</b></p><div style=\"display: inline-block; background-color: #d9e0e7; padding: 6px; margin: 4px; border: 1px solid #8da1b4; border-radius: 5px; line-height: 60%\"><p style=\"margin-bottom: 0px\">Resource \"HAICA-TC-CNP-Member6\" </p><p style=\"margin-bottom: 0px\">Profile: <a href=\"StructureDefinition-cbs-age-at-investigation.html\">Case Based Surveillance Age at Case Investigation</a></p></div><p><b>status</b>: final</p><p><b>category</b>: Case notification panel [CDC.PHIN] <span style=\"background: LightGoldenRodYellow; margin: 4px; border: 1px solid khaki\"> (<a href=\"https://loinc.org/\">LOINC</a>#78000-7)</span></p><p><b>code</b>: Age at time of case investigation <span style=\"background: LightGoldenRodYellow; margin: 4px; border: 1px solid khaki\"> (<a href=\"https://loinc.org/\">LOINC</a>#77998-3)</span></p><p><b>subject</b>: <a href=\"#Patient_HAICA-TC-Patient\">See above (Patient/HAICA-TC-Patient: HAICA-TC Example Patient)</a></p><p><b>value</b>: 78 year<span style=\"background: LightGoldenRodYellow\"> (Details: UCUM code a = 'a')</span></p></div>"
        },
        "status": "final",
        "category": [
          {
            "coding": [
              {
                "system": "http://loinc.org",
                "code": "78000-7",
                "display": "Case notification panel [CDC.PHIN]"
              }
            ]
          }
        ],
        "code": {
          "coding": [
            {
              "system": "http://loinc.org",
              "code": "77998-3",
              "display": "Age at time of case investigation"
            }
          ]
        },
        "subject": {
          "reference": "Patient/HAICA-TC-Patient",
          "display": "HAICA-TC Example Patient"
        },
        "valueQuantity": {
          "value": 78,
          "unit": "year",
          "system": "http://unitsofmeasure.org",
          "code": "a"
        }
      }
    },
    {
      "fullUrl": "Specimen/HAICA-TC-Specimen",
      "resource": {
        "resourceType": "Specimen",
        "id": "HAICA-TC-Specimen",
        "meta": {
          "profile": [
            "http://cbsig.chai.gatech.edu/StructureDefinition/cbs-specimen"
          ]
        },
        "text": {
          "status": "generated",
          "div": "<div xmlns=\"http://www.w3.org/1999/xhtml\"><p><b>Generated Narrative</b></p><div style=\"display: inline-block; background-color: #d9e0e7; padding: 6px; margin: 4px; border: 1px solid #8da1b4; border-radius: 5px; line-height: 60%\"><p style=\"margin-bottom: 0px\">Resource \"HAICA-TC-Specimen\" </p><p style=\"margin-bottom: 0px\">Profile: <a href=\"StructureDefinition-cbs-specimen.html\">Case Based Surveillance Specimen Profile</a></p></div><p><b>identifier</b>: State Lab Specimen ID: IDR908765140, Performing Laboratory Specimen ID: 198374-9</p><p><b>type</b>: Blood specimen <span style=\"background: LightGoldenRodYellow; margin: 4px; border: 1px solid khaki\"> (<a href=\"https://browser.ihtsdotools.org/\">SNOMED CT</a>#119297000)</span></p><p><b>subject</b>: <a href=\"#Patient_HAICA-TC-Patient\">See above (Patient/HAICA-TC-Patient: HAICA-TC Example Patient)</a></p><h3>Collections</h3><table class=\"grid\"><tr><td>-</td><td><b>Collected[x]</b></td></tr><tr><td>*</td><td>2018-11-24</td></tr></table></div>"
        },
        "identifier": [
          {
            "type": {
              "coding": [
                {
                  "system": "urn:oid:2.16.840.1.114222.4.5.232",
                  "code": "PLT687",
                  "display": "State Lab Specimen ID"
                }
              ]
            },
            "value": "IDR908765140"
          },
          {
            "type": {
              "coding": [
                {
                  "system": "urn:oid:2.16.840.1.114222.4.5.232",
                  "code": "LAB202",
                  "display": "Performing Laboratory Specimen ID"
                }
              ]
            },
            "value": "198374-9"
          }
        ],
        "type": {
          "coding": [
            {
              "system": "http://snomed.info/sct",
              "code": "119297000",
              "display": "Blood specimen"
            }
          ]
        },
        "subject": {
          "reference": "Patient/HAICA-TC-Patient",
          "display": "HAICA-TC Example Patient"
        },
        "collection": {
          "collectedDateTime": "2018-11-24"
        }
      }
    },
    {
      "fullUrl": "DiagnosticReport/HAICA-TC-Lab-DiagnosticReport",
      "resource": {
        "resourceType": "DiagnosticReport",
        "id": "HAICA-TC-Lab-DiagnosticReport",
        "meta": {
          "profile": [
            "http://cbsig.chai.gatech.edu/StructureDefinition/us-cbs-lab-diagnosticreport"
          ]
        },
        "text": {
          "status": "generated",
          "div": "<div xmlns=\"http://www.w3.org/1999/xhtml\"><p><b>Generated Narrative</b></p><div style=\"display: inline-block; background-color: #d9e0e7; padding: 6px; margin: 4px; border: 1px solid #8da1b4; border-radius: 5px; line-height: 60%\"><p style=\"margin-bottom: 0px\">Resource \"HAICA-TC-Lab-DiagnosticReport\" </p><p style=\"margin-bottom: 0px\">Profile: <a href=\"StructureDefinition-us-cbs-lab-diagnosticreport.html\">US Case Based Surveillance Lab Diagnostic Report</a></p></div><p><b>status</b>: final</p><p><b>category</b>: Laboratory <span style=\"background: LightGoldenRodYellow; margin: 4px; border: 1px solid khaki\"> (<a href=\"http://terminology.hl7.org/3.0.0/CodeSystem-v2-0074.html\">diagnosticServiceSectionId</a>#LAB)</span></p><p><b>code</b>: Lab test method [Type] <span style=\"background: LightGoldenRodYellow; margin: 4px; border: 1px solid khaki\"> (<a href=\"https://loinc.org/\">LOINC</a>#85069-3)</span></p><p><b>subject</b>: <a href=\"#Patient_HAICA-TC-Patient\">See above (Patient/HAICA-TC-Patient)</a></p><p><b>issued</b>: Dec 31, 2020, 7:00:00 PM</p><p><b>specimen</b>: <a href=\"#Specimen_HAICA-TC-Specimen\">See above (Specimen/HAICA-TC-Specimen)</a></p><p><b>result</b>: <a href=\"#Observation_HAICA-TC-Lab-Observation\">See above (Observation/HAICA-TC-Lab-Observation)</a></p></div>"
        },
        "status": "final",
        "category": [
          {
            "coding": [
              {
                "system": "http://terminology.hl7.org/CodeSystem/v2-0074",
                "code": "LAB"
              }
            ]
          }
        ],
        "code": {
          "coding": [
            {
              "system": "http://loinc.org",
              "code": "85069-3"
            }
          ]
        },
        "subject": {
          "reference": "Patient/HAICA-TC-Patient"
        },
        "issued": "2021-01-01T00:00:00Z",
        "specimen": [
          {
            "reference": "Specimen/HAICA-TC-Specimen"
          }
        ],
        "result": [
          {
            "reference": "Observation/HAICA-TC-Lab-Observation"
          }
        ]
      }
    },
    {
      "fullUrl": "Observation/HAICA-TC-Lab-Observation",
      "resource": {
        "resourceType": "Observation",
        "id": "HAICA-TC-Lab-Observation",
        "meta": {
          "profile": [
            "http://cbsig.chai.gatech.edu/StructureDefinition/us-cbs-lab-observation"
          ]
        },
        "text": {
          "status": "generated",
          "div": "<div xmlns=\"http://www.w3.org/1999/xhtml\"><p><b>Generated Narrative</b></p><div style=\"display: inline-block; background-color: #d9e0e7; padding: 6px; margin: 4px; border: 1px solid #8da1b4; border-radius: 5px; line-height: 60%\"><p style=\"margin-bottom: 0px\">Resource \"HAICA-TC-Lab-Observation\" </p><p style=\"margin-bottom: 0px\">Profile: <a href=\"StructureDefinition-us-cbs-lab-observation.html\">US Case Based Surveillance Lab Observation</a></p></div><p><b>status</b>: final</p><p><b>category</b>: Laboratory <span style=\"background: LightGoldenRodYellow; margin: 4px; border: 1px solid khaki\"> (<a href=\"http://terminology.hl7.org/3.0.0/CodeSystem-observation-category.html\">Observation Category Codes</a>#laboratory)</span></p><p><b>code</b>: DNA Sequencing <span style=\"background: LightGoldenRodYellow; margin: 4px; border: 1px solid khaki\"> (unknown#LAB723)</span></p><p><b>subject</b>: <a href=\"#Patient_HAICA-TC-Patient\">See above (Patient/HAICA-TC-Patient: HAICA-TC Example Patient)</a></p><p><b>value</b>: Positive <span style=\"background: LightGoldenRodYellow; margin: 4px; border: 1px solid khaki\"> (<a href=\"https://browser.ihtsdotools.org/\">SNOMED CT</a>#10828004)</span></p><p><b>method</b>: D1/D2 <span style=\"background: LightGoldenRodYellow; margin: 4px; border: 1px solid khaki\"> ([not stated]#D1D2)</span></p></div>"
        },
        "status": "final",
        "category": [
          {
            "coding": [
              {
                "system": "http://terminology.hl7.org/CodeSystem/observation-category",
                "code": "laboratory"
              }
            ]
          }
        ],
        "code": {
          "coding": [
            {
              "system": "urn:oid:2.16.840.1.114222.4.5.232",
              "code": "LAB723",
              "display": "DNA Sequencing"
            }
          ]
        },
        "subject": {
          "reference": "Patient/HAICA-TC-Patient",
          "display": "HAICA-TC Example Patient"
        },
        "valueCodeableConcept": {
          "coding": [
            {
              "system": "http://snomed.info/sct",
              "code": "10828004",
              "display": "Positive"
            }
          ]
        },
        "method": {
          "coding": [
            {
              "code": "D1D2",
              "display": "D1/D2"
            }
          ]
        }
      }
    }
  ]
}