<?xml version="1.0" encoding="UTF-8"?>

<Bundle xmlns="http://hl7.org/fhir">
  <id value="GenV2-TC-Document"/>
  <meta>
    <profile value="http://cbsig.chai.gatech.edu/StructureDefinition/cbs-document-bundle"/>
  </meta>
  <identifier>
    <type>
      <coding>
        <system value="http://cbsig.chai.gatech.edu/CodeSystem/cbs-temp-code-system"/>
        <code value="Local-Record-ID"/>
        <display value="Local Record ID"/>
      </coding>
      <text value="Local Record ID"/>
    </type>
    <system value="urn:temp:national-reporting-jurisdiction:48"/>
    <value value="GenV2_TC01_Record"/>
  </identifier>
  <type value="document"/>
  <timestamp value="2014-03-02T00:00:00Z"/>
  <entry>
    <fullUrl value="Composition/GenV2-TC-Composition"/>
    <resource>
      <Composition>
        <id value="GenV2-TC-Composition"/>
        <meta>
          <profile value="http://cbsig.chai.gatech.edu/StructureDefinition/cbs-composition"/>
        </meta>
        <text>
          <status value="generated"/><div xmlns="http://www.w3.org/1999/xhtml"><p><b>Generated Narrative</b></p><div style="display: inline-block; background-color: #d9e0e7; padding: 6px; margin: 4px; border: 1px solid #8da1b4; border-radius: 5px; line-height: 60%"><p style="margin-bottom: 0px">Resource "GenV2-TC-Composition" </p><p style="margin-bottom: 0px">Profile: <a href="StructureDefinition-cbs-composition.html">Case Based Surveillance Composition Profile</a></p></div><p><b>status</b>: final</p><p><b>type</b>: Public health Case report <span style="background: LightGoldenRodYellow; margin: 4px; border: 1px solid khaki"> (<a href="https://loinc.org/">LOINC</a>#55751-2)</span></p><p><b>date</b>: 2014-03-02</p><p><b>author</b>: <a href="#Organization_GenV2-TC-Reporting-Source">See above (Organization/GenV2-TC-Reporting-Source)</a></p><p><b>title</b>: Case Based Surveillance Composition</p></div>
        </text>
        <status value="final"/>
        <type>
          <coding>
            <system value="http://loinc.org"/>
            <code value="55751-2"/>
          </coding>
        </type>
        <subject>
          <reference value="Patient/GenV2-TC-Patient"/>
        </subject>
        <date value="2014-03-02"/>
        <author>
          <reference value="Organization/GenV2-TC-Reporting-Source"/>
        </author>
        <title value="Case Based Surveillance Composition"/>
        <section>
          <title value="Condition of Interest"/>
          <entry>
            <reference value="Condition/GenV2-TC-Condition"/>
          </entry>
        </section>
        <section>
          <title value="Case Notification Panel"/>
          <entry>
            <reference value="Observation/GenV2-TC-CNP"/>
          </entry>
          <section>
            <entry>
              <reference value="Observation/GenV2-TC-MMWR"/>
            </entry>
            <entry>
              <reference value="Observation/GenV2-TC-Exposure"/>
            </entry>
            <entry>
              <reference value="Observation/GenV2-TC-CNP-Member1"/>
            </entry>
            <entry>
              <reference value="Observation/GenV2-TC-CNP-Member2"/>
            </entry>
            <entry>
              <reference value="Observation/GenV2-TC-CNP-Member3"/>
            </entry>
            <entry>
              <reference value="Observation/GenV2-TC-CNP-Member4"/>
            </entry>
            <entry>
              <reference value="Observation/GenV2-TC-CNP-Member5"/>
            </entry>
            <entry>
              <reference value="Observation/GenV2-TC-CNP-Member6"/>
            </entry>
            <entry>
              <reference value="Observation/GenV2-TC-CNP-Member7"/>
            </entry>
            <entry>
              <reference value="Observation/GenV2-TC-CNP-Member8"/>
            </entry>
            <entry>
              <reference value="Observation/GenV2-TC-CNP-Member9"/>
            </entry>
            <entry>
              <reference value="Observation/GenV2-TC-CNP-Member10"/>
            </entry>
            <entry>
              <reference value="Observation/GenV2-TC-CNP-Member11"/>
            </entry>
            <entry>
              <reference value="Observation/GenV2-TC-CNP-Member12"/>
            </entry>
            <entry>
              <reference value="Observation/GenV2-TC-CNP-Member13"/>
            </entry>
            <entry>
              <reference value="Observation/GenV2-TC-CNP-Member14"/>
            </entry>
            <entry>
              <reference value="Observation/GenV2-TC-CNP-Member15"/>
            </entry>
          </section>
        </section>
        <section>
          <title value="History of Encounters (Hospitalizations)"/>
          <entry>
            <reference value="Encounter/GenV2-TC-Hospitalization"/>
          </entry>
        </section>
        <section>
          <title value="Epi Observations"/>
          <entry>
            <reference value="Observation/GenV2-TC-CauseOfDeath"/>
          </entry>
        </section>
        <section>
          <title value="Reporting Entities"/>
          <entry>
            <reference value="Organization/GenV2-TC-Reporting-Source"/>
          </entry>
        </section>
      </Composition>
    </resource>
  </entry>
  <entry>
    <fullUrl value="Patient/GenV2-TC-Patient"/>
    <resource>
      <Patient>
        <id value="GenV2-TC-Patient"/>
        <meta>
          <profile value="http://cbsig.chai.gatech.edu/StructureDefinition/us-cbs-patient"/>
        </meta>
        <text>
          <status value="extensions"/><div xmlns="http://www.w3.org/1999/xhtml"><p><b>Generated Narrative</b></p><div style="display: inline-block; background-color: #d9e0e7; padding: 6px; margin: 4px; border: 1px solid #8da1b4; border-radius: 5px; line-height: 60%"><p style="margin-bottom: 0px">Resource "GenV2-TC-Patient" </p><p style="margin-bottom: 0px">Profile: <a href="StructureDefinition-us-cbs-patient.html">US Case Based Surveillance Patient Profile</a></p></div><blockquote><p><b>US Core Race Extension</b></p><p><b>value</b>: White (Details: urn:oid:2.16.840.1.113883.6.238 code 2106-3 = 'White', stated as 'White')</p><p><b>value</b>: Apache (Details: urn:oid:2.16.840.1.113883.6.238 code 1010-8 = 'Apache', stated as 'Apache')</p><p><b>value</b>: Mixed</p></blockquote><blockquote><p><b>US Core Ethnicity Extension</b></p><p><b>value</b>: Not Hispanic or Latino (Details: urn:oid:2.16.840.1.113883.6.238 code 2186-5 = 'Not Hispanic or Latino', stated as 'Not Hispanic or Latino')</p><p><b>value</b>: Not Hispanic or Latino</p></blockquote><p><b>US Core Birth Sex Extension</b>: F</p><p><b>Birth Place</b>: USA </p><p><b>identifier</b>: Local Record ID: GenV2_TC01_Record, Local Subject ID: GenV2_TC01_Subject, Legacy Case Identifier: 48432148S012014, State Case Identifier: TX4321</p><p><b>name</b>: </p><p><b>telecom</b>: </p><p><b style="color: maroon">Exception generating Narrative: Cannot invoke "String.startsWith(String)" because the return value of "org.hl7.fhir.r5.model.ContactPoint.getValue()" is null</b></p></div>
        </text>
        <extension url="http://hl7.org/fhir/us/core/StructureDefinition/us-core-race">
          <extension url="ombCategory">
            <valueCoding>
              <system value="urn:oid:2.16.840.1.113883.6.238"/>
              <code value="2106-3"/>
              <display value="White"/>
            </valueCoding>
          </extension>
          <extension url="detailed">
            <valueCoding>
              <system value="urn:oid:2.16.840.1.113883.6.238"/>
              <code value="1010-8"/>
              <display value="Apache"/>
            </valueCoding>
          </extension>
          <extension url="text">
            <valueString value="Mixed"/>
          </extension>
        </extension>
        <extension url="http://hl7.org/fhir/us/core/StructureDefinition/us-core-ethnicity">
          <extension url="ombCategory">
            <valueCoding>
              <system value="urn:oid:2.16.840.1.113883.6.238"/>
              <code value="2186-5"/>
              <display value="Not Hispanic or Latino"/>
            </valueCoding>
          </extension>
          <extension url="text">
            <valueString value="Not Hispanic or Latino"/>
          </extension>
        </extension>
        <extension url="http://hl7.org/fhir/us/core/StructureDefinition/us-core-birthsex">
          <valueCode value="F"/>
        </extension>
        <extension url="http://hl7.org/fhir/StructureDefinition/patient-birthPlace">
          <valueAddress>
            <country value="USA"/>
          </valueAddress>
        </extension>
        <identifier>
          <type>
            <coding>
              <system value="http://cbsig.chai.gatech.edu/CodeSystem/cbs-temp-code-system"/>
              <code value="Local-Record-ID"/>
              <display value="Local Record ID"/>
            </coding>
            <text value="Local Record ID"/>
          </type>
          <system value="urn:temp:national-reporting-jurisdiction:48"/>
          <value value="GenV2_TC01_Record"/>
        </identifier>
        <identifier>
          <type>
            <coding>
              <system value="http://cbsig.chai.gatech.edu/CodeSystem/cbs-temp-code-system"/>
              <code value="Local-Subject-ID"/>
              <display value="Local Subject ID"/>
            </coding>
            <text value="Local Subject ID"/>
          </type>
          <system value="urn:temp:national-reporting-jurisdiction:48"/>
          <value value="GenV2_TC01_Subject"/>
        </identifier>
        <identifier>
          <type>
            <coding>
              <system value="http://loinc.org"/>
              <code value="77997-5"/>
              <display value="Legacy case identifier [CDC.PHIN]"/>
            </coding>
            <text value="Legacy Case Identifier"/>
          </type>
          <system value="urn:temp:national-reporting-jurisdiction:48"/>
          <value value="48432148S012014"/>
        </identifier>
        <identifier>
          <type>
            <coding>
              <system value="http://loinc.org"/>
              <code value="77993-4"/>
              <display value="State notifiable condition case identifier"/>
            </coding>
            <text value="State Case Identifier"/>
          </type>
          <system value="urn:temp:national-reporting-jurisdiction:48"/>
          <value value="TX4321"/>
        </identifier>
        <name>
          <extension url="http://hl7.org/fhir/StructureDefinition/data-absent-reason">
            <valueCode value="masked"/>
          </extension>
        </name>
        <telecom>
          <system value="phone"/>
          <value>
            <extension url="http://hl7.org/fhir/StructureDefinition/data-absent-reason">
              <valueCode value="masked"/>
            </extension>
          </value>
        </telecom>
        <telecom>
          <system value="email"/>
          <value>
            <extension url="http://hl7.org/fhir/StructureDefinition/data-absent-reason">
              <valueCode value="masked"/>
            </extension>
          </value>
        </telecom>
        <gender value="female"/>
        <birthDate value="1964-05-02"/>
        <deceasedDateTime value="2014-03-02"/>
        <address>
          <use value="home"/>
          <district value="Harris"/>
          <state value="Texas"/>
          <postalCode value="77018"/>
        </address>
        <address>
          <extension url="http://cbsig.chai.gatech.edu/StructureDefinition/cbs-cdc-address-use">
            <valueCoding>
              <system value="http://cbsig.chai.gatech.edu/CodeSystem/cbs-temp-code-system"/>
              <code value="Usual-Residence"/>
            </valueCoding>
          </extension>
          <country value="USA"/>
        </address>
      </Patient>
    </resource>
  </entry>
  <entry>
    <fullUrl value="Condition/GenV2-TC-Condition"/>
    <resource>
      <Condition>
        <id value="GenV2-TC-Condition"/>
        <meta>
          <profile value="http://cbsig.chai.gatech.edu/StructureDefinition/us-cbs-condition"/>
        </meta>
        <text>
          <status value="extensions"/><div xmlns="http://www.w3.org/1999/xhtml"><p><b>Generated Narrative</b></p><div style="display: inline-block; background-color: #d9e0e7; padding: 6px; margin: 4px; border: 1px solid #8da1b4; border-radius: 5px; line-height: 60%"><p style="margin-bottom: 0px">Resource "GenV2-TC-Condition" </p><p style="margin-bottom: 0px">Profile: <a href="StructureDefinition-us-cbs-condition.html">US Case Based Surveillance Condition of Interest Profile</a></p></div><p><b>Case Based Surveillance Case Class Status</b>: Confirmed present <span style="background: LightGoldenRodYellow; margin: 4px; border: 1px solid khaki"> (<a href="https://browser.ihtsdotools.org/">SNOMED CT</a>#410605003)</span></p><p><b>Case Based Surveillance Illness Duration</b>: 6 d<span style="background: LightGoldenRodYellow"> (Details: UCUM code d = 'd')</span></p><p><b>clinicalStatus</b>: Inactive <span style="background: LightGoldenRodYellow; margin: 4px; border: 1px solid khaki"> (<a href="http://terminology.hl7.org/3.0.0/CodeSystem-condition-clinical.html">Condition Clinical Status Codes</a>#inactive)</span></p><p><b>category</b>: Problem List Item <span style="background: LightGoldenRodYellow; margin: 4px; border: 1px solid khaki"> (<a href="http://terminology.hl7.org/3.0.0/CodeSystem-condition-category.html">Condition Category Codes</a>#problem-list-item)</span></p><p><b>code</b>: Hemolytic Uremic Syndrome <span style="background: LightGoldenRodYellow; margin: 4px; border: 1px solid khaki"> (unknown#11550)</span></p><p><b>subject</b>: <a href="#Patient_GenV2-TC-Patient">See above (Patient/GenV2-TC-Patient: GenV2-TC Example Patient)</a></p><p><b>onset</b>: 2014-02-24</p><p><b>abatement</b>: 2014-03-02</p></div>
        </text>
        <extension url="http://cbsig.chai.gatech.edu/StructureDefinition/cbs-case-class-status">
          <valueCodeableConcept>
            <coding>
              <system value="http://snomed.info/sct"/>
              <code value="410605003"/>
              <display value="Confirmed present"/>
            </coding>
          </valueCodeableConcept>
        </extension>
        <extension url="http://cbsig.chai.gatech.edu/StructureDefinition/cbs-illness-duration">
          <valueQuantity>
            <value value="6"/>
            <system value="http://unitsofmeasure.org"/>
            <code value="d"/>
          </valueQuantity>
        </extension>
        <clinicalStatus>
          <coding>
            <system value="http://terminology.hl7.org/CodeSystem/condition-clinical"/>
            <code value="inactive"/>
          </coding>
        </clinicalStatus>
        <category>
          <coding>
            <system value="http://terminology.hl7.org/CodeSystem/condition-category"/>
            <code value="problem-list-item"/>
          </coding>
        </category>
        <code>
          <coding>
            <system value="urn:oid:2.16.840.1.114222.4.5.277"/>
            <code value="11550"/>
            <display value="Hemolytic Uremic Syndrome"/>
          </coding>
        </code>
        <subject>
          <reference value="Patient/GenV2-TC-Patient"/>
          <display value="GenV2-TC Example Patient"/>
        </subject>
        <onsetDateTime value="2014-02-24"/>
        <abatementDateTime value="2014-03-02"/>
      </Condition>
    </resource>
  </entry>
  <entry>
    <fullUrl value="Encounter/GenV2-TC-Hospitalization"/>
    <resource>
      <Encounter>
        <id value="GenV2-TC-Hospitalization"/>
        <meta>
          <profile value="http://cbsig.chai.gatech.edu/StructureDefinition/us-cbs-hospitalization"/>
        </meta>
        <text>
          <status value="generated"/><div xmlns="http://www.w3.org/1999/xhtml"><p><b>Generated Narrative</b></p><div style="display: inline-block; background-color: #d9e0e7; padding: 6px; margin: 4px; border: 1px solid #8da1b4; border-radius: 5px; line-height: 60%"><p style="margin-bottom: 0px">Resource "GenV2-TC-Hospitalization" </p><p style="margin-bottom: 0px">Profile: <a href="StructureDefinition-us-cbs-hospitalization.html">US Case Based Surveillance Hospitalization Encounter Profile</a></p></div><p><b>status</b>: unknown</p><p><b>class</b>: inpatient encounter (Details: http://terminology.hl7.org/CodeSystem/v3-ActCode code IMP = 'inpatient encounter', stated as 'inpatient encounter')</p><p><b>type</b>: Inpatient Hospital <span style="background: LightGoldenRodYellow; margin: 4px; border: 1px solid khaki"> (<a href="http://terminology.hl7.org/3.0.0/CodeSystem-CPT.html">Current Procedural Terminology (CPT&reg;)</a>#42628595)</span></p><p><b>subject</b>: <a href="#Patient_GenV2-TC-Patient">See above (Patient/GenV2-TC-Patient: GenV2-TC Example Patient)</a></p><p><b>period</b>: 2014-02-26 --&gt; 2014-03-02</p><p><b>reasonReference</b>: <a href="#Condition_GenV2-TC-Condition">See above (Condition/GenV2-TC-Condition)</a></p><h3>Locations</h3><table class="grid"><tr><td>-</td><td><b>Location</b></td></tr><tr><td>*</td><td><span>: Masked Location</span></td></tr></table></div>
        </text>
        <status value="unknown"/>
        <class>
          <system value="http://terminology.hl7.org/CodeSystem/v3-ActCode"/>
          <code value="IMP"/>
          <display value="inpatient encounter"/>
        </class>
        <type>
          <coding>
            <system value="http://www.ama-assn.org/go/cpt"/>
            <code value="42628595"/>
            <display value="Inpatient Hospital"/>
          </coding>
        </type>
        <subject>
          <reference value="Patient/GenV2-TC-Patient"/>
          <display value="GenV2-TC Example Patient"/>
        </subject>
        <period>
          <start value="2014-02-26"/>
          <end value="2014-03-02"/>
        </period>
        <length>
          <value value="4"/>
          <unit value="days"/>
          <system value="http://unitsofmeasure.org"/>
          <code value="d"/>
        </length>
        <reasonReference>
          <reference value="Condition/GenV2-TC-Condition"/>
        </reasonReference>
        <location>
          <location>
            <extension url="http://hl7.org/fhir/StructureDefinition/data-absent-reason">
              <valueCode value="masked"/>
            </extension>
            <display value="Masked Location"/>
          </location>
        </location>
      </Encounter>
    </resource>
  </entry>
  <entry>
    <fullUrl value="Observation/GenV2-TC-CauseOfDeath"/>
    <resource>
      <Observation>
        <id value="GenV2-TC-CauseOfDeath"/>
        <meta>
          <profile value="http://cbsig.chai.gatech.edu/StructureDefinition/cbs-cause-of-death"/>
        </meta>
        <text>
          <status value="generated"/><div xmlns="http://www.w3.org/1999/xhtml"><p><b>Generated Narrative</b></p><div style="display: inline-block; background-color: #d9e0e7; padding: 6px; margin: 4px; border: 1px solid #8da1b4; border-radius: 5px; line-height: 60%"><p style="margin-bottom: 0px">Resource "GenV2-TC-CauseOfDeath" </p><p style="margin-bottom: 0px">Profile: <a href="StructureDefinition-cbs-cause-of-death.html">Case Based Surveillance Cause of Death Profile</a></p></div><p><b>status</b>: final</p><p><b>code</b>: Cause of death <span style="background: LightGoldenRodYellow; margin: 4px; border: 1px solid khaki"> (<a href="https://loinc.org/">LOINC</a>#79378-6)</span></p><p><b>subject</b>: <a href="#Patient_GenV2-TC-Patient">See above (Patient/GenV2-TC-Patient: GenV2-TC Example Patient)</a></p><p><b>focus</b>: <a href="#Condition_GenV2-TC-Condition">See above (Condition/GenV2-TC-Condition: GenV2-TC Example Condition of Interest)</a></p></div>
        </text>
        <status value="final"/>
        <code>
          <coding>
            <system value="http://loinc.org"/>
            <code value="79378-6"/>
          </coding>
        </code>
        <subject>
          <reference value="Patient/GenV2-TC-Patient"/>
          <display value="GenV2-TC Example Patient"/>
        </subject>
        <focus>
          <reference value="Condition/GenV2-TC-Condition"/>
          <display value="GenV2-TC Example Condition of Interest"/>
        </focus>
      </Observation>
    </resource>
  </entry>
  <entry>
    <fullUrl value="Organization/GenV2-TC-Reporting-Source"/>
    <resource>
      <Organization>
        <id value="GenV2-TC-Reporting-Source"/>
        <meta>
          <profile value="http://cbsig.chai.gatech.edu/StructureDefinition/us-cbs-reporting-source-organization"/>
        </meta>
        <text>
          <status value="generated"/><div xmlns="http://www.w3.org/1999/xhtml"><p><b>Generated Narrative</b></p><div style="display: inline-block; background-color: #d9e0e7; padding: 6px; margin: 4px; border: 1px solid #8da1b4; border-radius: 5px; line-height: 60%"><p style="margin-bottom: 0px">Resource "GenV2-TC-Reporting-Source" </p><p style="margin-bottom: 0px">Profile: <a href="StructureDefinition-us-cbs-reporting-source-organization.html">US Case Based Surveillance Reporting Source Organization Profile</a></p></div><p><b>active</b>: true</p><p><b>type</b>: Hospital <span style="background: LightGoldenRodYellow; margin: 4px; border: 1px solid khaki"> (<a href="http://terminology.hl7.org/3.0.0/CodeSystem-v2-0406.html">organizationUnitType</a>#1)</span></p><p><b>name</b>: Reporting Source</p><p><b>telecom</b>: -unknown-</p><p><b>address</b>: 77018 </p><h3>Contacts</h3><table class="grid"><tr><td>-</td><td><b>Name</b></td><td><b>Telecom</b></td></tr><tr><td>*</td><td>Smith, John</td><td>ph: 444-321-1234, <a href="mailto:jsmith@txdoh.org">jsmith@txdoh.org</a></td></tr></table></div>
        </text>
        <active value="true"/>
        <type>
          <coding>
            <system value="http://terminology.hl7.org/CodeSystem/v2-0406"/>
            <code value="1"/>
            <display value="Hospital"/>
          </coding>
        </type>
        <name value="Reporting Source"/>
        <telecom>
          <extension url="http://hl7.org/fhir/StructureDefinition/data-absent-reason">
            <valueCode value="unknown"/>
          </extension>
        </telecom>
        <address>
          <postalCode value="77018"/>
        </address>
        <contact>
          <name>
            <text value="Smith, John"/>
            <family value="Smith"/>
            <given value="John"/>
          </name>
          <telecom>
            <system value="phone"/>
            <value value="444-321-1234"/>
          </telecom>
          <telecom>
            <system value="email"/>
            <value value="jsmith@txdoh.org"/>
          </telecom>
        </contact>
      </Organization>
    </resource>
  </entry>
  <entry>
    <fullUrl value="Observation/GenV2-TC-CNP"/>
    <resource>
      <Observation>
        <id value="GenV2-TC-CNP"/>
        <meta>
          <profile value="http://cbsig.chai.gatech.edu/StructureDefinition/cbs-case-notification-panel"/>
        </meta>
        <text>
          <status value="generated"/><div xmlns="http://www.w3.org/1999/xhtml"><p><b>Generated Narrative</b></p><div style="display: inline-block; background-color: #d9e0e7; padding: 6px; margin: 4px; border: 1px solid #8da1b4; border-radius: 5px; line-height: 60%"><p style="margin-bottom: 0px">Resource "GenV2-TC-CNP" </p><p style="margin-bottom: 0px">Profile: <a href="StructureDefinition-cbs-case-notification-panel.html">Case Based Surveillance Case Notification Panel Profile</a></p></div><p><b>status</b>: final</p><p><b>category</b>: Case notification panel [CDC.PHIN] <span style="background: LightGoldenRodYellow; margin: 4px; border: 1px solid khaki"> (<a href="https://loinc.org/">LOINC</a>#78000-7)</span></p><p><b>code</b>: Case notification panel [CDC.PHIN] <span style="background: LightGoldenRodYellow; margin: 4px; border: 1px solid khaki"> (<a href="https://loinc.org/">LOINC</a>#78000-7)</span></p><p><b>subject</b>: <a href="#Patient_GenV2-TC-Patient">See above (Patient/GenV2-TC-Patient: GenV2-TC Example Patient)</a></p><p><b>hasMember</b>: </p><ul><li><a href="#Observation_GenV2-TC-MMWR">See above (Observation/GenV2-TC-MMWR)</a></li><li><a href="#Observation_GenV2-TC-Exposure">See above (Observation/GenV2-TC-Exposure)</a></li><li><a href="#Observation_GenV2-TC-CNP-Member1">See above (Observation/GenV2-TC-CNP-Member1)</a></li><li><a href="#Observation_GenV2-TC-CNP-Member2">See above (Observation/GenV2-TC-CNP-Member2)</a></li><li><a href="#Observation_GenV2-TC-CNP-Member3">See above (Observation/GenV2-TC-CNP-Member3)</a></li><li><a href="#Observation_GenV2-TC-CNP-Member4">See above (Observation/GenV2-TC-CNP-Member4)</a></li><li><a href="#Observation_GenV2-TC-CNP-Member5">See above (Observation/GenV2-TC-CNP-Member5)</a></li><li><a href="#Observation_GenV2-TC-CNP-Member6">See above (Observation/GenV2-TC-CNP-Member6)</a></li><li><a href="#Observation_GenV2-TC-CNP-Member7">See above (Observation/GenV2-TC-CNP-Member7)</a></li><li><a href="#Observation_GenV2-TC-CNP-Member8">See above (Observation/GenV2-TC-CNP-Member8)</a></li><li><a href="#Observation_GenV2-TC-CNP-Member9">See above (Observation/GenV2-TC-CNP-Member9)</a></li><li><a href="#Observation_GenV2-TC-CNP-Member10">See above (Observation/GenV2-TC-CNP-Member10)</a></li><li><a href="#Observation_GenV2-TC-CNP-Member11">See above (Observation/GenV2-TC-CNP-Member11)</a></li><li><a href="#Observation_GenV2-TC-CNP-Member12">See above (Observation/GenV2-TC-CNP-Member12)</a></li><li><a href="#Observation_GenV2-TC-CNP-Member13">See above (Observation/GenV2-TC-CNP-Member13)</a></li><li><a href="#Observation_GenV2-TC-CNP-Member14">See above (Observation/GenV2-TC-CNP-Member14)</a></li><li><a href="#Observation_GenV2-TC-CNP-Member15">See above (Observation/GenV2-TC-CNP-Member15)</a></li></ul></div>
        </text>
        <status value="final"/>
        <category>
          <coding>
            <system value="http://loinc.org"/>
            <code value="78000-7"/>
            <display value="Case notification panel [CDC.PHIN]"/>
          </coding>
        </category>
        <code>
          <coding>
            <system value="http://loinc.org"/>
            <code value="78000-7"/>
            <display value="Case notification panel [CDC.PHIN]"/>
          </coding>
        </code>
        <subject>
          <reference value="Patient/GenV2-TC-Patient"/>
          <display value="GenV2-TC Example Patient"/>
        </subject>
        <hasMember>
          <reference value="Observation/GenV2-TC-MMWR"/>
        </hasMember>
        <hasMember>
          <reference value="Observation/GenV2-TC-Exposure"/>
        </hasMember>
        <hasMember>
          <reference value="Observation/GenV2-TC-CNP-Member1"/>
        </hasMember>
        <hasMember>
          <reference value="Observation/GenV2-TC-CNP-Member2"/>
        </hasMember>
        <hasMember>
          <reference value="Observation/GenV2-TC-CNP-Member3"/>
        </hasMember>
        <hasMember>
          <reference value="Observation/GenV2-TC-CNP-Member4"/>
        </hasMember>
        <hasMember>
          <reference value="Observation/GenV2-TC-CNP-Member5"/>
        </hasMember>
        <hasMember>
          <reference value="Observation/GenV2-TC-CNP-Member6"/>
        </hasMember>
        <hasMember>
          <reference value="Observation/GenV2-TC-CNP-Member7"/>
        </hasMember>
        <hasMember>
          <reference value="Observation/GenV2-TC-CNP-Member8"/>
        </hasMember>
        <hasMember>
          <reference value="Observation/GenV2-TC-CNP-Member9"/>
        </hasMember>
        <hasMember>
          <reference value="Observation/GenV2-TC-CNP-Member10"/>
        </hasMember>
        <hasMember>
          <reference value="Observation/GenV2-TC-CNP-Member11"/>
        </hasMember>
        <hasMember>
          <reference value="Observation/GenV2-TC-CNP-Member12"/>
        </hasMember>
        <hasMember>
          <reference value="Observation/GenV2-TC-CNP-Member13"/>
        </hasMember>
        <hasMember>
          <reference value="Observation/GenV2-TC-CNP-Member14"/>
        </hasMember>
        <hasMember>
          <reference value="Observation/GenV2-TC-CNP-Member15"/>
        </hasMember>
      </Observation>
    </resource>
  </entry>
  <entry>
    <fullUrl value="Observation/GenV2-TC-MMWR"/>
    <resource>
      <Observation>
        <id value="GenV2-TC-MMWR"/>
        <meta>
          <profile value="http://cbsig.chai.gatech.edu/StructureDefinition/cbs-mmwr"/>
        </meta>
        <text>
          <status value="generated"/><div xmlns="http://www.w3.org/1999/xhtml"><p><b>Generated Narrative</b></p><div style="display: inline-block; background-color: #d9e0e7; padding: 6px; margin: 4px; border: 1px solid #8da1b4; border-radius: 5px; line-height: 60%"><p style="margin-bottom: 0px">Resource "GenV2-TC-MMWR" </p><p style="margin-bottom: 0px">Profile: <a href="StructureDefinition-cbs-mmwr.html">Case Based Surveillance Morbidity and Mortality Weekly Report (MMWR) Elements</a></p></div><p><b>status</b>: final</p><p><b>category</b>: Case notification panel [CDC.PHIN] <span style="background: LightGoldenRodYellow; margin: 4px; border: 1px solid khaki"> (<a href="https://loinc.org/">LOINC</a>#78000-7)</span></p><p><b>code</b>: MMWR Week/Year <span style="background: LightGoldenRodYellow; margin: 4px; border: 1px solid khaki"> (<a href="CodeSystem-cbs-temp-code-system.html">Case Based Surveillance temporary/placeholder code system.</a>#MMWR)</span></p><p><b>subject</b>: <a href="#Patient_GenV2-TC-Patient">See above (Patient/GenV2-TC-Patient: GenV2-TC Example Patient)</a></p><blockquote><p><b>component</b></p><p><b>code</b>: MMWR Week [CDC.PHIN] <span style="background: LightGoldenRodYellow; margin: 4px; border: 1px solid khaki"> (<a href="https://loinc.org/">LOINC</a>#77991-8)</span></p><p><b>value</b>: 9</p></blockquote><blockquote><p><b>component</b></p><p><b>code</b>: MMWR Year [CDC.PHIN] <span style="background: LightGoldenRodYellow; margin: 4px; border: 1px solid khaki"> (<a href="https://loinc.org/">LOINC</a>#77992-6)</span></p><p><b>value</b>: 2014</p></blockquote></div>
        </text>
        <status value="final"/>
        <category>
          <coding>
            <system value="http://loinc.org"/>
            <code value="78000-7"/>
            <display value="Case notification panel [CDC.PHIN]"/>
          </coding>
        </category>
        <code>
          <coding>
            <system value="http://cbsig.chai.gatech.edu/CodeSystem/cbs-temp-code-system"/>
            <code value="MMWR"/>
          </coding>
        </code>
        <subject>
          <reference value="Patient/GenV2-TC-Patient"/>
          <display value="GenV2-TC Example Patient"/>
        </subject>
        <component>
          <code>
            <coding>
              <system value="http://loinc.org"/>
              <code value="77991-8"/>
            </coding>
          </code>
          <valueInteger value="9"/>
        </component>
        <component>
          <code>
            <coding>
              <system value="http://loinc.org"/>
              <code value="77992-6"/>
            </coding>
          </code>
          <valueInteger value="2014"/>
        </component>
      </Observation>
    </resource>
  </entry>
  <entry>
    <fullUrl value="Observation/GenV2-TC-Exposure"/>
    <resource>
      <Observation>
        <id value="GenV2-TC-Exposure"/>
        <meta>
          <profile value="http://cbsig.chai.gatech.edu/StructureDefinition/cbs-exposure-observation"/>
        </meta>
        <text>
          <status value="generated"/><div xmlns="http://www.w3.org/1999/xhtml"><p><b>Generated Narrative</b></p><div style="display: inline-block; background-color: #d9e0e7; padding: 6px; margin: 4px; border: 1px solid #8da1b4; border-radius: 5px; line-height: 60%"><p style="margin-bottom: 0px">Resource "GenV2-TC-Exposure" </p><p style="margin-bottom: 0px">Profile: <a href="StructureDefinition-cbs-exposure-observation.html">Case Based Surveillance Exposure Observation Profile</a></p></div><p><b>status</b>: final</p><p><b>category</b>: Case notification panel [CDC.PHIN] <span style="background: LightGoldenRodYellow; margin: 4px; border: 1px solid khaki"> (<a href="https://loinc.org/">LOINC</a>#78000-7)</span></p><p><b>code</b>: Location of Exposure <span style="background: LightGoldenRodYellow; margin: 4px; border: 1px solid khaki"> (<a href="CodeSystem-cbs-temp-code-system.html">Case Based Surveillance temporary/placeholder code system.</a>#Location-of-Exposure)</span></p><p><b>subject</b>: <a href="#Patient_GenV2-TC-Patient">See above (Patient/GenV2-TC-Patient: GenV2-TC Example Patient)</a></p><p><b>focus</b>: <a href="#Condition_GenV2-TC-Condition">See above (Condition/GenV2-TC-Condition: GenV2-TC Example Condition of Interest)</a></p><blockquote><p><b>component</b></p><p><b>code</b>: Country of exposure to illness [Location] <span style="background: LightGoldenRodYellow; margin: 4px; border: 1px solid khaki"> (<a href="https://loinc.org/">LOINC</a>#77984-3)</span></p><p><b>value</b>: United States of America <span style="background: LightGoldenRodYellow; margin: 4px; border: 1px solid khaki"> (unknown#USA)</span></p></blockquote><blockquote><p><b>component</b></p><p><b>code</b>: State or province of exposure to illness <span style="background: LightGoldenRodYellow; margin: 4px; border: 1px solid khaki"> (<a href="https://loinc.org/">LOINC</a>#77985-0)</span></p><p><b>value</b>: Texas <span style="background: LightGoldenRodYellow; margin: 4px; border: 1px solid khaki"> (unknown#48)</span></p></blockquote><blockquote><p><b>component</b></p><p><b>code</b>: City of exposure to illness <span style="background: LightGoldenRodYellow; margin: 4px; border: 1px solid khaki"> (<a href="https://loinc.org/">LOINC</a>#77986-8)</span></p><p><b>value</b>: Houston</p></blockquote><blockquote><p><b>component</b></p><p><b>code</b>: County of exposure to illness [Location] <span style="background: LightGoldenRodYellow; margin: 4px; border: 1px solid khaki"> (<a href="https://loinc.org/">LOINC</a>#77987-6)</span></p><p><b>value</b>: Harris</p></blockquote></div>
        </text>
        <status value="final"/>
        <category>
          <coding>
            <system value="http://loinc.org"/>
            <code value="78000-7"/>
            <display value="Case notification panel [CDC.PHIN]"/>
          </coding>
        </category>
        <code>
          <coding>
            <system value="http://cbsig.chai.gatech.edu/CodeSystem/cbs-temp-code-system"/>
            <code value="Location-of-Exposure"/>
          </coding>
        </code>
        <subject>
          <reference value="Patient/GenV2-TC-Patient"/>
          <display value="GenV2-TC Example Patient"/>
        </subject>
        <focus>
          <reference value="Condition/GenV2-TC-Condition"/>
          <display value="GenV2-TC Example Condition of Interest"/>
        </focus>
        <component>
          <code>
            <coding>
              <system value="http://loinc.org"/>
              <code value="77984-3"/>
            </coding>
          </code>
          <valueCodeableConcept>
            <coding>
              <system value="urn:iso:std:iso:3166"/>
              <code value="USA"/>
              <display value="United States of America"/>
            </coding>
          </valueCodeableConcept>
        </component>
        <component>
          <code>
            <coding>
              <system value="http://loinc.org"/>
              <code value="77985-0"/>
            </coding>
          </code>
          <valueCodeableConcept>
            <coding>
              <system value="urn:oid:2.16.840.1.113883.6.92"/>
              <code value="48"/>
              <display value="Texas"/>
            </coding>
          </valueCodeableConcept>
        </component>
        <component>
          <code>
            <coding>
              <system value="http://loinc.org"/>
              <code value="77986-8"/>
            </coding>
          </code>
          <valueString value="Houston"/>
        </component>
        <component>
          <code>
            <coding>
              <system value="http://loinc.org"/>
              <code value="77987-6"/>
            </coding>
          </code>
          <valueString value="Harris"/>
        </component>
      </Observation>
    </resource>
  </entry>
  <entry>
    <fullUrl value="Observation/GenV2-TC-CNP-Member1"/>
    <resource>
      <Observation>
        <id value="GenV2-TC-CNP-Member1"/>
        <meta>
          <profile value="http://cbsig.chai.gatech.edu/StructureDefinition/cbs-immediate-nnc"/>
        </meta>
        <text>
          <status value="generated"/><div xmlns="http://www.w3.org/1999/xhtml"><p><b>Generated Narrative</b></p><div style="display: inline-block; background-color: #d9e0e7; padding: 6px; margin: 4px; border: 1px solid #8da1b4; border-radius: 5px; line-height: 60%"><p style="margin-bottom: 0px">Resource "GenV2-TC-CNP-Member1" </p><p style="margin-bottom: 0px">Profile: <a href="StructureDefinition-cbs-immediate-nnc.html">Case Based Surveillance Immediate National Notifiable Condition</a></p></div><p><b>status</b>: final</p><p><b>category</b>: Case notification panel [CDC.PHIN] <span style="background: LightGoldenRodYellow; margin: 4px; border: 1px solid khaki"> (<a href="https://loinc.org/">LOINC</a>#78000-7)</span></p><p><b>code</b>: Immediate National Notifiable Condition <span style="background: LightGoldenRodYellow; margin: 4px; border: 1px solid khaki"> (<a href="https://loinc.org/">LOINC</a>#77965-2)</span></p><p><b>subject</b>: <a href="#Patient_GenV2-TC-Patient">See above (Patient/GenV2-TC-Patient: GenV2-TC Example Patient)</a></p><p><b>value</b>: No <span style="background: LightGoldenRodYellow; margin: 4px; border: 1px solid khaki"> (<a href="http://terminology.hl7.org/3.0.0/CodeSystem-v2-0005.html">PH_RaceAndEthnicity_CDC</a>#N)</span></p></div>
        </text>
        <status value="final"/>
        <category>
          <coding>
            <system value="http://loinc.org"/>
            <code value="78000-7"/>
            <display value="Case notification panel [CDC.PHIN]"/>
          </coding>
        </category>
        <code>
          <coding>
            <system value="http://loinc.org"/>
            <code value="77965-2"/>
            <display value="Immediate National Notifiable Condition"/>
          </coding>
        </code>
        <subject>
          <reference value="Patient/GenV2-TC-Patient"/>
          <display value="GenV2-TC Example Patient"/>
        </subject>
        <valueCodeableConcept>
          <coding>
            <system value="http://terminology.hl7.org/CodeSystem/v2-0005"/>
            <code value="N"/>
            <display value="No"/>
          </coding>
        </valueCodeableConcept>
      </Observation>
    </resource>
  </entry>
  <entry>
    <fullUrl value="Observation/GenV2-TC-CNP-Member2"/>
    <resource>
      <Observation>
        <id value="GenV2-TC-CNP-Member2"/>
        <meta>
          <profile value="http://cbsig.chai.gatech.edu/StructureDefinition/cbs-reporting-state"/>
        </meta>
        <text>
          <status value="generated"/><div xmlns="http://www.w3.org/1999/xhtml"><p><b>Generated Narrative</b></p><div style="display: inline-block; background-color: #d9e0e7; padding: 6px; margin: 4px; border: 1px solid #8da1b4; border-radius: 5px; line-height: 60%"><p style="margin-bottom: 0px">Resource "GenV2-TC-CNP-Member2" </p><p style="margin-bottom: 0px">Profile: <a href="StructureDefinition-cbs-reporting-state.html">Case Based Surveillance Reporting State</a></p></div><p><b>status</b>: final</p><p><b>category</b>: Case notification panel [CDC.PHIN] <span style="background: LightGoldenRodYellow; margin: 4px; border: 1px solid khaki"> (<a href="https://loinc.org/">LOINC</a>#78000-7)</span></p><p><b>code</b>: Reporting State <span style="background: LightGoldenRodYellow; margin: 4px; border: 1px solid khaki"> (<a href="https://loinc.org/">LOINC</a>#77966-0)</span></p><p><b>subject</b>: <a href="#Patient_GenV2-TC-Patient">See above (Patient/GenV2-TC-Patient: GenV2-TC Example Patient)</a></p><p><b>value</b>: Texas <span style="background: LightGoldenRodYellow; margin: 4px; border: 1px solid khaki"> (unknown#48)</span></p></div>
        </text>
        <status value="final"/>
        <category>
          <coding>
            <system value="http://loinc.org"/>
            <code value="78000-7"/>
            <display value="Case notification panel [CDC.PHIN]"/>
          </coding>
        </category>
        <code>
          <coding>
            <system value="http://loinc.org"/>
            <code value="77966-0"/>
            <display value="Reporting State"/>
          </coding>
        </code>
        <subject>
          <reference value="Patient/GenV2-TC-Patient"/>
          <display value="GenV2-TC Example Patient"/>
        </subject>
        <valueCodeableConcept>
          <coding>
            <system value="urn:oid:2.16.840.1.113883.6.92"/>
            <code value="48"/>
            <display value="Texas"/>
          </coding>
        </valueCodeableConcept>
      </Observation>
    </resource>
  </entry>
  <entry>
    <fullUrl value="Observation/GenV2-TC-CNP-Member3"/>
    <resource>
      <Observation>
        <id value="GenV2-TC-CNP-Member3"/>
        <meta>
          <profile value="http://cbsig.chai.gatech.edu/StructureDefinition/cbs-reporting-county"/>
        </meta>
        <text>
          <status value="generated"/><div xmlns="http://www.w3.org/1999/xhtml"><p><b>Generated Narrative</b></p><div style="display: inline-block; background-color: #d9e0e7; padding: 6px; margin: 4px; border: 1px solid #8da1b4; border-radius: 5px; line-height: 60%"><p style="margin-bottom: 0px">Resource "GenV2-TC-CNP-Member3" </p><p style="margin-bottom: 0px">Profile: <a href="StructureDefinition-cbs-reporting-county.html">Case Based Surveillance Reporting County</a></p></div><p><b>status</b>: final</p><p><b>category</b>: Case notification panel [CDC.PHIN] <span style="background: LightGoldenRodYellow; margin: 4px; border: 1px solid khaki"> (<a href="https://loinc.org/">LOINC</a>#78000-7)</span></p><p><b>code</b>: Reporting County <span style="background: LightGoldenRodYellow; margin: 4px; border: 1px solid khaki"> (<a href="https://loinc.org/">LOINC</a>#77967-8)</span></p><p><b>subject</b>: <a href="#Patient_GenV2-TC-Patient">See above (Patient/GenV2-TC-Patient: GenV2-TC Example Patient)</a></p><p><b>value</b>: Harris <span style="background: LightGoldenRodYellow; margin: 4px; border: 1px solid khaki"> (unknown#48201)</span></p></div>
        </text>
        <status value="final"/>
        <category>
          <coding>
            <system value="http://loinc.org"/>
            <code value="78000-7"/>
            <display value="Case notification panel [CDC.PHIN]"/>
          </coding>
        </category>
        <code>
          <coding>
            <system value="http://loinc.org"/>
            <code value="77967-8"/>
            <display value="Reporting County"/>
          </coding>
        </code>
        <subject>
          <reference value="Patient/GenV2-TC-Patient"/>
          <display value="GenV2-TC Example Patient"/>
        </subject>
        <valueCodeableConcept>
          <coding>
            <system value="urn:oid:2.16.840.1.113883.6.93"/>
            <code value="48201"/>
            <display value="Harris"/>
          </coding>
        </valueCodeableConcept>
      </Observation>
    </resource>
  </entry>
  <entry>
    <fullUrl value="Observation/GenV2-TC-CNP-Member4"/>
    <resource>
      <Observation>
        <id value="GenV2-TC-CNP-Member4"/>
        <meta>
          <profile value="http://cbsig.chai.gatech.edu/StructureDefinition/cbs-national-reporting-jurisdiction"/>
        </meta>
        <text>
          <status value="generated"/><div xmlns="http://www.w3.org/1999/xhtml"><p><b>Generated Narrative</b></p><div style="display: inline-block; background-color: #d9e0e7; padding: 6px; margin: 4px; border: 1px solid #8da1b4; border-radius: 5px; line-height: 60%"><p style="margin-bottom: 0px">Resource "GenV2-TC-CNP-Member4" </p><p style="margin-bottom: 0px">Profile: <a href="StructureDefinition-cbs-national-reporting-jurisdiction.html">Case Based Surveillance National Reporting Jurisdiction</a></p></div><p><b>status</b>: final</p><p><b>category</b>: Case notification panel [CDC.PHIN] <span style="background: LightGoldenRodYellow; margin: 4px; border: 1px solid khaki"> (<a href="https://loinc.org/">LOINC</a>#78000-7)</span></p><p><b>code</b>: National Reporting Jurisdiction <span style="background: LightGoldenRodYellow; margin: 4px; border: 1px solid khaki"> (<a href="https://loinc.org/">LOINC</a>#77968-6)</span></p><p><b>subject</b>: <a href="#Patient_GenV2-TC-Patient">See above (Patient/GenV2-TC-Patient: GenV2-TC Example Patient)</a></p><p><b>value</b>: Texas <span style="background: LightGoldenRodYellow; margin: 4px; border: 1px solid khaki"> (unknown#48)</span></p></div>
        </text>
        <status value="final"/>
        <category>
          <coding>
            <system value="http://loinc.org"/>
            <code value="78000-7"/>
            <display value="Case notification panel [CDC.PHIN]"/>
          </coding>
        </category>
        <code>
          <coding>
            <system value="http://loinc.org"/>
            <code value="77968-6"/>
            <display value="National Reporting Jurisdiction"/>
          </coding>
        </code>
        <subject>
          <reference value="Patient/GenV2-TC-Patient"/>
          <display value="GenV2-TC Example Patient"/>
        </subject>
        <valueCodeableConcept>
          <coding>
            <system value="urn:oid:2.16.840.1.113883.6.92"/>
            <code value="48"/>
            <display value="Texas"/>
          </coding>
        </valueCodeableConcept>
      </Observation>
    </resource>
  </entry>
  <entry>
    <fullUrl value="Observation/GenV2-TC-CNP-Member5"/>
    <resource>
      <Observation>
        <id value="GenV2-TC-CNP-Member5"/>
        <meta>
          <profile value="http://cbsig.chai.gatech.edu/StructureDefinition/cbs-jurisdiction-code"/>
        </meta>
        <text>
          <status value="generated"/><div xmlns="http://www.w3.org/1999/xhtml"><p><b>Generated Narrative</b></p><div style="display: inline-block; background-color: #d9e0e7; padding: 6px; margin: 4px; border: 1px solid #8da1b4; border-radius: 5px; line-height: 60%"><p style="margin-bottom: 0px">Resource "GenV2-TC-CNP-Member5" </p><p style="margin-bottom: 0px">Profile: <a href="StructureDefinition-cbs-jurisdiction-code.html">Case Based Surveillance Jurisdiction Code</a></p></div><p><b>status</b>: final</p><p><b>category</b>: Case notification panel [CDC.PHIN] <span style="background: LightGoldenRodYellow; margin: 4px; border: 1px solid khaki"> (<a href="https://loinc.org/">LOINC</a>#78000-7)</span></p><p><b>code</b>: Jurisdiction Code <span style="background: LightGoldenRodYellow; margin: 4px; border: 1px solid khaki"> (<a href="https://loinc.org/">LOINC</a>#77969-4)</span></p><p><b>subject</b>: <a href="#Patient_GenV2-TC-Patient">See above (Patient/GenV2-TC-Patient: GenV2-TC Example Patient)</a></p><p><b>value</b>: S01</p></div>
        </text>
        <status value="final"/>
        <category>
          <coding>
            <system value="http://loinc.org"/>
            <code value="78000-7"/>
            <display value="Case notification panel [CDC.PHIN]"/>
          </coding>
        </category>
        <code>
          <coding>
            <system value="http://loinc.org"/>
            <code value="77969-4"/>
            <display value="Jurisdiction Code"/>
          </coding>
        </code>
        <subject>
          <reference value="Patient/GenV2-TC-Patient"/>
          <display value="GenV2-TC Example Patient"/>
        </subject>
        <valueString value="S01"/>
      </Observation>
    </resource>
  </entry>
  <entry>
    <fullUrl value="Observation/GenV2-TC-CNP-Member6"/>
    <resource>
      <Observation>
        <id value="GenV2-TC-CNP-Member6"/>
        <meta>
          <profile value="http://cbsig.chai.gatech.edu/StructureDefinition/cbs-date-initial-report"/>
        </meta>
        <text>
          <status value="generated"/><div xmlns="http://www.w3.org/1999/xhtml"><p><b>Generated Narrative</b></p><div style="display: inline-block; background-color: #d9e0e7; padding: 6px; margin: 4px; border: 1px solid #8da1b4; border-radius: 5px; line-height: 60%"><p style="margin-bottom: 0px">Resource "GenV2-TC-CNP-Member6" </p><p style="margin-bottom: 0px">Profile: <a href="StructureDefinition-cbs-date-initial-report.html">Case Based Surveillance Date of Initial Report</a></p></div><p><b>status</b>: final</p><p><b>category</b>: Case notification panel [CDC.PHIN] <span style="background: LightGoldenRodYellow; margin: 4px; border: 1px solid khaki"> (<a href="https://loinc.org/">LOINC</a>#78000-7)</span></p><p><b>code</b>: Date of Initial Report <span style="background: LightGoldenRodYellow; margin: 4px; border: 1px solid khaki"> (<a href="https://loinc.org/">LOINC</a>#77970-2)</span></p><p><b>subject</b>: <a href="#Patient_GenV2-TC-Patient">See above (Patient/GenV2-TC-Patient: GenV2-TC Example Patient)</a></p><p><b>value</b>: 2014-02-25</p></div>
        </text>
        <status value="final"/>
        <category>
          <coding>
            <system value="http://loinc.org"/>
            <code value="78000-7"/>
            <display value="Case notification panel [CDC.PHIN]"/>
          </coding>
        </category>
        <code>
          <coding>
            <system value="http://loinc.org"/>
            <code value="77970-2"/>
            <display value="Date of Initial Report"/>
          </coding>
        </code>
        <subject>
          <reference value="Patient/GenV2-TC-Patient"/>
          <display value="GenV2-TC Example Patient"/>
        </subject>
        <valueDateTime value="2014-02-25"/>
      </Observation>
    </resource>
  </entry>
  <entry>
    <fullUrl value="Observation/GenV2-TC-CNP-Member7"/>
    <resource>
      <Observation>
        <id value="GenV2-TC-CNP-Member7"/>
        <meta>
          <profile value="http://cbsig.chai.gatech.edu/StructureDefinition/cbs-earliest-date-reported-to-county"/>
        </meta>
        <text>
          <status value="generated"/><div xmlns="http://www.w3.org/1999/xhtml"><p><b>Generated Narrative</b></p><div style="display: inline-block; background-color: #d9e0e7; padding: 6px; margin: 4px; border: 1px solid #8da1b4; border-radius: 5px; line-height: 60%"><p style="margin-bottom: 0px">Resource "GenV2-TC-CNP-Member7" </p><p style="margin-bottom: 0px">Profile: <a href="StructureDefinition-cbs-earliest-date-reported-to-county.html">Case Based Surveillance Earliest Date Reported</a></p></div><p><b>status</b>: final</p><p><b>category</b>: Case notification panel [CDC.PHIN] <span style="background: LightGoldenRodYellow; margin: 4px; border: 1px solid khaki"> (<a href="https://loinc.org/">LOINC</a>#78000-7)</span></p><p><b>code</b>: Earliest Date Reported to County <span style="background: LightGoldenRodYellow; margin: 4px; border: 1px solid khaki"> (<a href="https://loinc.org/">LOINC</a>#77972-8)</span></p><p><b>subject</b>: <a href="#Patient_GenV2-TC-Patient">See above (Patient/GenV2-TC-Patient: GenV2-TC Example Patient)</a></p><p><b>value</b>: 2014-02-25</p></div>
        </text>
        <status value="final"/>
        <category>
          <coding>
            <system value="http://loinc.org"/>
            <code value="78000-7"/>
            <display value="Case notification panel [CDC.PHIN]"/>
          </coding>
        </category>
        <code>
          <coding>
            <system value="http://loinc.org"/>
            <code value="77972-8"/>
            <display value="Earliest Date Reported to County"/>
          </coding>
        </code>
        <subject>
          <reference value="Patient/GenV2-TC-Patient"/>
          <display value="GenV2-TC Example Patient"/>
        </subject>
        <valueDateTime value="2014-02-25"/>
      </Observation>
    </resource>
  </entry>
  <entry>
    <fullUrl value="Observation/GenV2-TC-CNP-Member8"/>
    <resource>
      <Observation>
        <id value="GenV2-TC-CNP-Member8"/>
        <meta>
          <profile value="http://cbsig.chai.gatech.edu/StructureDefinition/cbs-earliest-date-reported-to-state"/>
        </meta>
        <text>
          <status value="generated"/><div xmlns="http://www.w3.org/1999/xhtml"><p><b>Generated Narrative</b></p><div style="display: inline-block; background-color: #d9e0e7; padding: 6px; margin: 4px; border: 1px solid #8da1b4; border-radius: 5px; line-height: 60%"><p style="margin-bottom: 0px">Resource "GenV2-TC-CNP-Member8" </p><p style="margin-bottom: 0px">Profile: <a href="StructureDefinition-cbs-earliest-date-reported-to-state.html">Case Based Surveillance Earliest Date Reported to State</a></p></div><p><b>status</b>: final</p><p><b>category</b>: Case notification panel [CDC.PHIN] <span style="background: LightGoldenRodYellow; margin: 4px; border: 1px solid khaki"> (<a href="https://loinc.org/">LOINC</a>#78000-7)</span></p><p><b>code</b>: Earliest Date Reported to State <span style="background: LightGoldenRodYellow; margin: 4px; border: 1px solid khaki"> (<a href="https://loinc.org/">LOINC</a>#77973-6)</span></p><p><b>subject</b>: <a href="#Patient_GenV2-TC-Patient">See above (Patient/GenV2-TC-Patient: GenV2-TC Example Patient)</a></p><p><b>value</b>: 2014-02-25</p></div>
        </text>
        <status value="final"/>
        <category>
          <coding>
            <system value="http://loinc.org"/>
            <code value="78000-7"/>
            <display value="Case notification panel [CDC.PHIN]"/>
          </coding>
        </category>
        <code>
          <coding>
            <system value="http://loinc.org"/>
            <code value="77973-6"/>
            <display value="Earliest Date Reported to State"/>
          </coding>
        </code>
        <subject>
          <reference value="Patient/GenV2-TC-Patient"/>
          <display value="GenV2-TC Example Patient"/>
        </subject>
        <valueDateTime value="2014-02-25"/>
      </Observation>
    </resource>
  </entry>
  <entry>
    <fullUrl value="Observation/GenV2-TC-CNP-Member9"/>
    <resource>
      <Observation>
        <id value="GenV2-TC-CNP-Member9"/>
        <meta>
          <profile value="http://cbsig.chai.gatech.edu/StructureDefinition/cbs-investigation-start-date"/>
        </meta>
        <text>
          <status value="generated"/><div xmlns="http://www.w3.org/1999/xhtml"><p><b>Generated Narrative</b></p><div style="display: inline-block; background-color: #d9e0e7; padding: 6px; margin: 4px; border: 1px solid #8da1b4; border-radius: 5px; line-height: 60%"><p style="margin-bottom: 0px">Resource "GenV2-TC-CNP-Member9" </p><p style="margin-bottom: 0px">Profile: <a href="StructureDefinition-cbs-investigation-start-date.html">Case Based Surveillance Case Investigation Start Date</a></p></div><p><b>status</b>: final</p><p><b>category</b>: Case notification panel [CDC.PHIN] <span style="background: LightGoldenRodYellow; margin: 4px; border: 1px solid khaki"> (<a href="https://loinc.org/">LOINC</a>#78000-7)</span></p><p><b>code</b>: Case Investigation Start Date <span style="background: LightGoldenRodYellow; margin: 4px; border: 1px solid khaki"> (<a href="https://loinc.org/">LOINC</a>#77979-3)</span></p><p><b>subject</b>: <a href="#Patient_GenV2-TC-Patient">See above (Patient/GenV2-TC-Patient: GenV2-TC Example Patient)</a></p><p><b>value</b>: 2014-02-25</p></div>
        </text>
        <status value="final"/>
        <category>
          <coding>
            <system value="http://loinc.org"/>
            <code value="78000-7"/>
            <display value="Case notification panel [CDC.PHIN]"/>
          </coding>
        </category>
        <code>
          <coding>
            <system value="http://loinc.org"/>
            <code value="77979-3"/>
            <display value="Case Investigation Start Date"/>
          </coding>
        </code>
        <subject>
          <reference value="Patient/GenV2-TC-Patient"/>
          <display value="GenV2-TC Example Patient"/>
        </subject>
        <valueDateTime value="2014-02-25"/>
      </Observation>
    </resource>
  </entry>
  <entry>
    <fullUrl value="Observation/GenV2-TC-CNP-Member10"/>
    <resource>
      <Observation>
        <id value="GenV2-TC-CNP-Member10"/>
        <meta>
          <profile value="http://cbsig.chai.gatech.edu/StructureDefinition/cbs-case-outbreak"/>
        </meta>
        <text>
          <status value="generated"/><div xmlns="http://www.w3.org/1999/xhtml"><p><b>Generated Narrative</b></p><div style="display: inline-block; background-color: #d9e0e7; padding: 6px; margin: 4px; border: 1px solid #8da1b4; border-radius: 5px; line-height: 60%"><p style="margin-bottom: 0px">Resource "GenV2-TC-CNP-Member10" </p><p style="margin-bottom: 0px">Profile: <a href="StructureDefinition-cbs-case-outbreak.html">Case Based Surveillance Case Outbreak</a></p></div><p><b>status</b>: final</p><p><b>category</b>: Case notification panel [CDC.PHIN] <span style="background: LightGoldenRodYellow; margin: 4px; border: 1px solid khaki"> (<a href="https://loinc.org/">LOINC</a>#78000-7)</span></p><p><b>code</b>: Case Outbreak Name and Indicator <span style="background: LightGoldenRodYellow; margin: 4px; border: 1px solid khaki"> (<a href="CodeSystem-cbs-temp-code-system.html">Case Based Surveillance temporary/placeholder code system.</a>#case-outbreak)</span></p><p><b>subject</b>: <a href="#Patient_GenV2-TC-Patient">See above (Patient/GenV2-TC-Patient: GenV2-TC Example Patient)</a></p><blockquote><p><b>component</b></p><p><b>code</b>: Case is associated with a known outbreak <span style="background: LightGoldenRodYellow; margin: 4px; border: 1px solid khaki"> (<a href="https://loinc.org/">LOINC</a>#77980-1)</span></p><p><b>value</b>: Yes <span style="background: LightGoldenRodYellow; margin: 4px; border: 1px solid khaki"> (<a href="http://terminology.hl7.org/3.0.0/CodeSystem-v2-0005.html">PH_RaceAndEthnicity_CDC</a>#Y)</span></p></blockquote><blockquote><p><b>component</b></p><p><b>code</b>: Case Outbreak Name <span style="background: LightGoldenRodYellow; margin: 4px; border: 1px solid khaki"> (<a href="https://loinc.org/">LOINC</a>#77981-9)</span></p><p><b>value</b>: HANSENOUTB1</p></blockquote></div>
        </text>
        <status value="final"/>
        <category>
          <coding>
            <system value="http://loinc.org"/>
            <code value="78000-7"/>
            <display value="Case notification panel [CDC.PHIN]"/>
          </coding>
        </category>
        <code>
          <coding>
            <system value="http://cbsig.chai.gatech.edu/CodeSystem/cbs-temp-code-system"/>
            <code value="case-outbreak"/>
            <display value="Case Outbreak Name and Indicator"/>
          </coding>
        </code>
        <subject>
          <reference value="Patient/GenV2-TC-Patient"/>
          <display value="GenV2-TC Example Patient"/>
        </subject>
        <component>
          <code>
            <coding>
              <system value="http://loinc.org"/>
              <code value="77980-1"/>
              <display value="Case is associated with a known outbreak"/>
            </coding>
          </code>
          <valueCodeableConcept>
            <coding>
              <system value="http://terminology.hl7.org/CodeSystem/v2-0005"/>
              <code value="Y"/>
              <display value="Yes"/>
            </coding>
          </valueCodeableConcept>
        </component>
        <component>
          <code>
            <coding>
              <system value="http://loinc.org"/>
              <code value="77981-9"/>
              <display value="Case Outbreak Name"/>
            </coding>
          </code>
          <valueString value="HANSENOUTB1"/>
        </component>
      </Observation>
    </resource>
  </entry>
  <entry>
    <fullUrl value="Observation/GenV2-TC-CNP-Member11"/>
    <resource>
      <Observation>
        <id value="GenV2-TC-CNP-Member11"/>
        <meta>
          <profile value="http://cbsig.chai.gatech.edu/StructureDefinition/cbs-binational-reporting-criteria"/>
        </meta>
        <text>
          <status value="generated"/><div xmlns="http://www.w3.org/1999/xhtml"><p><b>Generated Narrative</b></p><div style="display: inline-block; background-color: #d9e0e7; padding: 6px; margin: 4px; border: 1px solid #8da1b4; border-radius: 5px; line-height: 60%"><p style="margin-bottom: 0px">Resource "GenV2-TC-CNP-Member11" </p><p style="margin-bottom: 0px">Profile: <a href="StructureDefinition-cbs-binational-reporting-criteria.html">Case Based Surveillance Binational Reporting Criteria</a></p></div><p><b>status</b>: final</p><p><b>category</b>: Case notification panel [CDC.PHIN] <span style="background: LightGoldenRodYellow; margin: 4px; border: 1px solid khaki"> (<a href="https://loinc.org/">LOINC</a>#78000-7)</span></p><p><b>code</b>: Binational reporting criteria [CDC.PHIN] <span style="background: LightGoldenRodYellow; margin: 4px; border: 1px solid khaki"> (<a href="https://loinc.org/">LOINC</a>#77988-4)</span></p><p><b>subject</b>: <a href="#Patient_GenV2-TC-Patient">See above (Patient/GenV2-TC-Patient: GenV2-TC Example Patient)</a></p><p><b>value</b>: Exposure to suspected product from Canada or Mexico <span style="background: LightGoldenRodYellow; margin: 4px; border: 1px solid khaki"> (unknown#PHC1140)</span></p></div>
        </text>
        <status value="final"/>
        <category>
          <coding>
            <system value="http://loinc.org"/>
            <code value="78000-7"/>
            <display value="Case notification panel [CDC.PHIN]"/>
          </coding>
        </category>
        <code>
          <coding>
            <system value="http://loinc.org"/>
            <code value="77988-4"/>
            <display value="Binational reporting criteria [CDC.PHIN]"/>
          </coding>
        </code>
        <subject>
          <reference value="Patient/GenV2-TC-Patient"/>
          <display value="GenV2-TC Example Patient"/>
        </subject>
        <valueCodeableConcept>
          <coding>
            <system value="urn:oid:2.16.840.1.114222.4.5.274"/>
            <code value="PHC1140"/>
            <display value="Exposure to suspected product from Canada or Mexico"/>
          </coding>
        </valueCodeableConcept>
      </Observation>
    </resource>
  </entry>
  <entry>
    <fullUrl value="Observation/GenV2-TC-CNP-Member12"/>
    <resource>
      <Observation>
        <id value="GenV2-TC-CNP-Member12"/>
        <meta>
          <profile value="http://cbsig.chai.gatech.edu/StructureDefinition/cbs-transmission-mode"/>
        </meta>
        <text>
          <status value="generated"/><div xmlns="http://www.w3.org/1999/xhtml"><p><b>Generated Narrative</b></p><div style="display: inline-block; background-color: #d9e0e7; padding: 6px; margin: 4px; border: 1px solid #8da1b4; border-radius: 5px; line-height: 60%"><p style="margin-bottom: 0px">Resource "GenV2-TC-CNP-Member12" </p><p style="margin-bottom: 0px">Profile: <a href="StructureDefinition-cbs-transmission-mode.html">Case Based Surveillance Transmission Mode</a></p></div><p><b>status</b>: final</p><p><b>category</b>: Case notification panel [CDC.PHIN] <span style="background: LightGoldenRodYellow; margin: 4px; border: 1px solid khaki"> (<a href="https://loinc.org/">LOINC</a>#78000-7)</span></p><p><b>code</b>: Disease transmission mode <span style="background: LightGoldenRodYellow; margin: 4px; border: 1px solid khaki"> (<a href="https://loinc.org/">LOINC</a>#77989-2)</span></p><p><b>subject</b>: <a href="#Patient_GenV2-TC-Patient">See above (Patient/GenV2-TC-Patient: GenV2-TC Example Patient)</a></p><p><b>value</b>: Food-borne transmission <span style="background: LightGoldenRodYellow; margin: 4px; border: 1px solid khaki"> (<a href="https://browser.ihtsdotools.org/">SNOMED CT</a>#416086007)</span></p></div>
        </text>
        <status value="final"/>
        <category>
          <coding>
            <system value="http://loinc.org"/>
            <code value="78000-7"/>
            <display value="Case notification panel [CDC.PHIN]"/>
          </coding>
        </category>
        <code>
          <coding>
            <system value="http://loinc.org"/>
            <code value="77989-2"/>
            <display value="Disease transmission mode"/>
          </coding>
        </code>
        <subject>
          <reference value="Patient/GenV2-TC-Patient"/>
          <display value="GenV2-TC Example Patient"/>
        </subject>
        <valueCodeableConcept>
          <coding>
            <system value="http://snomed.info/sct"/>
            <code value="416086007"/>
            <display value="Food-borne transmission"/>
          </coding>
        </valueCodeableConcept>
      </Observation>
    </resource>
  </entry>
  <entry>
    <fullUrl value="Observation/GenV2-TC-CNP-Member13"/>
    <resource>
      <Observation>
        <id value="GenV2-TC-CNP-Member13"/>
        <meta>
          <profile value="http://cbsig.chai.gatech.edu/StructureDefinition/cbs-date-reported-to-phd"/>
        </meta>
        <text>
          <status value="generated"/><div xmlns="http://www.w3.org/1999/xhtml"><p><b>Generated Narrative</b></p><div style="display: inline-block; background-color: #d9e0e7; padding: 6px; margin: 4px; border: 1px solid #8da1b4; border-radius: 5px; line-height: 60%"><p style="margin-bottom: 0px">Resource "GenV2-TC-CNP-Member13" </p><p style="margin-bottom: 0px">Profile: <a href="StructureDefinition-cbs-date-reported-to-phd.html">Case Based Surveillance Date of First Report to Public Health Department</a></p></div><p><b>status</b>: final</p><p><b>category</b>: Case notification panel [CDC.PHIN] <span style="background: LightGoldenRodYellow; margin: 4px; border: 1px solid khaki"> (<a href="https://loinc.org/">LOINC</a>#78000-7)</span></p><p><b>code</b>: Date of first report to public health department <span style="background: LightGoldenRodYellow; margin: 4px; border: 1px solid khaki"> (<a href="https://loinc.org/">LOINC</a>#77995-9)</span></p><p><b>subject</b>: <a href="#Patient_GenV2-TC-Patient">See above (Patient/GenV2-TC-Patient: GenV2-TC Example Patient)</a></p><p><b>value</b>: 2014-02-25</p></div>
        </text>
        <status value="final"/>
        <category>
          <coding>
            <system value="http://loinc.org"/>
            <code value="78000-7"/>
            <display value="Case notification panel [CDC.PHIN]"/>
          </coding>
        </category>
        <code>
          <coding>
            <system value="http://loinc.org"/>
            <code value="77995-9"/>
            <display value="Date of first report to public health department"/>
          </coding>
        </code>
        <subject>
          <reference value="Patient/GenV2-TC-Patient"/>
          <display value="GenV2-TC Example Patient"/>
        </subject>
        <valueDateTime value="2014-02-25"/>
      </Observation>
    </resource>
  </entry>
  <entry>
    <fullUrl value="Observation/GenV2-TC-CNP-Member14"/>
    <resource>
      <Observation>
        <id value="GenV2-TC-CNP-Member14"/>
        <meta>
          <profile value="http://cbsig.chai.gatech.edu/StructureDefinition/cbs-pregnancy-status"/>
        </meta>
        <text>
          <status value="generated"/><div xmlns="http://www.w3.org/1999/xhtml"><p><b>Generated Narrative</b></p><div style="display: inline-block; background-color: #d9e0e7; padding: 6px; margin: 4px; border: 1px solid #8da1b4; border-radius: 5px; line-height: 60%"><p style="margin-bottom: 0px">Resource "GenV2-TC-CNP-Member14" </p><p style="margin-bottom: 0px">Profile: <a href="StructureDefinition-cbs-pregnancy-status.html">Case Based Surveillance Pregnancy Status</a></p></div><p><b>status</b>: final</p><p><b>category</b>: Case notification panel [CDC.PHIN] <span style="background: LightGoldenRodYellow; margin: 4px; border: 1px solid khaki"> (<a href="https://loinc.org/">LOINC</a>#78000-7)</span></p><p><b>code</b>: Pregnancy status at time of illness or condition <span style="background: LightGoldenRodYellow; margin: 4px; border: 1px solid khaki"> (<a href="https://loinc.org/">LOINC</a>#77996-7)</span></p><p><b>subject</b>: <a href="#Patient_GenV2-TC-Patient">See above (Patient/GenV2-TC-Patient: GenV2-TC Example Patient)</a></p><p><b>value</b>: No <span style="background: LightGoldenRodYellow; margin: 4px; border: 1px solid khaki"> (<a href="http://terminology.hl7.org/3.0.0/CodeSystem-v2-0532.html">expandedYes-NoIndicator</a>#N)</span></p></div>
        </text>
        <status value="final"/>
        <category>
          <coding>
            <system value="http://loinc.org"/>
            <code value="78000-7"/>
            <display value="Case notification panel [CDC.PHIN]"/>
          </coding>
        </category>
        <code>
          <coding>
            <system value="http://loinc.org"/>
            <code value="77996-7"/>
            <display value="Pregnancy status at time of illness or condition"/>
          </coding>
        </code>
        <subject>
          <reference value="Patient/GenV2-TC-Patient"/>
          <display value="GenV2-TC Example Patient"/>
        </subject>
        <valueCodeableConcept>
          <coding>
            <system value="http://terminology.hl7.org/CodeSystem/v2-0532"/>
            <code value="N"/>
            <display value="No"/>
          </coding>
        </valueCodeableConcept>
      </Observation>
    </resource>
  </entry>
  <entry>
    <fullUrl value="Observation/GenV2-TC-CNP-Member15"/>
    <resource>
      <Observation>
        <id value="GenV2-TC-CNP-Member15"/>
        <meta>
          <profile value="http://cbsig.chai.gatech.edu/StructureDefinition/cbs-age-at-investigation"/>
        </meta>
        <text>
          <status value="generated"/><div xmlns="http://www.w3.org/1999/xhtml"><p><b>Generated Narrative</b></p><div style="display: inline-block; background-color: #d9e0e7; padding: 6px; margin: 4px; border: 1px solid #8da1b4; border-radius: 5px; line-height: 60%"><p style="margin-bottom: 0px">Resource "GenV2-TC-CNP-Member15" </p><p style="margin-bottom: 0px">Profile: <a href="StructureDefinition-cbs-age-at-investigation.html">Case Based Surveillance Age at Case Investigation</a></p></div><p><b>status</b>: final</p><p><b>category</b>: Case notification panel [CDC.PHIN] <span style="background: LightGoldenRodYellow; margin: 4px; border: 1px solid khaki"> (<a href="https://loinc.org/">LOINC</a>#78000-7)</span></p><p><b>code</b>: Age at time of case investigation <span style="background: LightGoldenRodYellow; margin: 4px; border: 1px solid khaki"> (<a href="https://loinc.org/">LOINC</a>#77998-3)</span></p><p><b>subject</b>: <a href="#Patient_GenV2-TC-Patient">See above (Patient/GenV2-TC-Patient: GenV2-TC Example Patient)</a></p><p><b>value</b>: 49 year<span style="background: LightGoldenRodYellow"> (Details: UCUM code a = 'a')</span></p></div>
        </text>
        <status value="final"/>
        <category>
          <coding>
            <system value="http://loinc.org"/>
            <code value="78000-7"/>
            <display value="Case notification panel [CDC.PHIN]"/>
          </coding>
        </category>
        <code>
          <coding>
            <system value="http://loinc.org"/>
            <code value="77998-3"/>
            <display value="Age at time of case investigation"/>
          </coding>
        </code>
        <subject>
          <reference value="Patient/GenV2-TC-Patient"/>
          <display value="GenV2-TC Example Patient"/>
        </subject>
        <valueQuantity>
          <value value="49"/>
          <unit value="year"/>
          <system value="http://unitsofmeasure.org"/>
          <code value="a"/>
        </valueQuantity>
      </Observation>
    </resource>
  </entry>
</Bundle>