<?xml version="1.0" encoding="UTF-8"?>

<Bundle xmlns="http://hl7.org/fhir">
  <id value="HAICA-TC-Document"/>
  <meta>
    <profile value="http://cbsig.chai.gatech.edu/StructureDefinition/cbs-document-bundle"/>
  </meta>
  <identifier>
    <type>
      <coding>
        <system value="http://cbsig.chai.gatech.edu/CodeSystem/cbs-temp-code-system"/>
        <code value="Local-Record-ID"/>
        <display value="Local Record ID"/>
      </coding>
      <text value="Local Record ID"/>
    </type>
    <system value="urn:temp:national-reporting-jurisdiction:48"/>
    <value value="C_auris_02"/>
  </identifier>
  <type value="document"/>
  <timestamp value="2018-11-26T00:00:00Z"/>
  <entry>
    <fullUrl value="Composition/HAICA-TC-Composition"/>
    <resource>
      <Composition>
        <id value="HAICA-TC-Composition"/>
        <meta>
          <profile value="http://cbsig.chai.gatech.edu/StructureDefinition/cbs-composition"/>
        </meta>
        <text>
          <status value="generated"/><div xmlns="http://www.w3.org/1999/xhtml"><p><b>Generated Narrative</b></p><p><b>status</b>: final</p><p><b>type</b>: <span title="Codes: {http://loinc.org 55751-2}">Public health Case report</span></p><p><b>date</b>: 2018-11-26</p><p><b>author</b>: <a href="#Organization_HAICA-TC-Reporting-Source">See above (Organization/HAICA-TC-Reporting-Source)</a></p><p><b>title</b>: Case Based Surveillance Composition</p></div>
        </text>
        <status value="final"/>
        <type>
          <coding>
            <system value="http://loinc.org"/>
            <code value="55751-2"/>
          </coding>
        </type>
        <subject>
          <reference value="Patient/HAICA-TC-Patient"/>
        </subject>
        <date value="2018-11-26"/>
        <author>
          <reference value="Organization/HAICA-TC-Reporting-Source"/>
        </author>
        <title value="Case Based Surveillance Composition"/>
        <section>
          <title value="Condition of Interest"/>
          <entry>
            <reference value="Condition/HAICA-TC-Condition"/>
          </entry>
        </section>
        <section>
          <title value="Case Notification Panel"/>
          <entry>
            <reference value="Observation/HAICA-TC-CNP"/>
          </entry>
          <section>
            <entry>
              <reference value="Observation/HAICA-TC-MMWR"/>
            </entry>
            <entry>
              <reference value="Observation/HAICA-TC-CNP-Member1"/>
            </entry>
            <entry>
              <reference value="Observation/HAICA-TC-CNP-Member2"/>
            </entry>
            <entry>
              <reference value="Observation/HAICA-TC-CNP-Member3"/>
            </entry>
            <entry>
              <reference value="Observation/HAICA-TC-CNP-Member4"/>
            </entry>
            <entry>
              <reference value="Observation/HAICA-TC-CNP-Member5"/>
            </entry>
            <entry>
              <reference value="Observation/HAICA-TC-CNP-Member6"/>
            </entry>
          </section>
        </section>
        <section>
          <title value="History of Encounters (Hospitalizations)"/>
          <entry>
            <reference value="Encounter/HAICA-TC-Hospitalization"/>
          </entry>
        </section>
        <section>
          <title value="Reporting Entities"/>
          <entry>
            <reference value="Practitioner/HAICA-TC-Person-Reporting"/>
          </entry>
          <entry>
            <reference value="Organization/HAICA-TC-Reporting-Source"/>
          </entry>
        </section>
        <section>
          <title value="Laboratory Related Resources"/>
          <entry>
            <reference value="DiagnosticReport/HAICA-TC-Lab-DiagnosticReport"/>
          </entry>
          <entry>
            <reference value="Observation/HAICA-TC-Lab-Observation"/>
          </entry>
          <entry>
            <reference value="Specimen/HAICA-TC-Specimen"/>
          </entry>
        </section>
      </Composition>
    </resource>
  </entry>
  <entry>
    <fullUrl value="Patient/HAICA-TC-Patient"/>
    <resource>
      <Patient>
        <id value="HAICA-TC-Patient"/>
        <meta>
          <profile value="http://cbsig.chai.gatech.edu/StructureDefinition/cbs-patient"/>
        </meta>
        <text>
          <status value="extensions"/><div xmlns="http://www.w3.org/1999/xhtml"><p><b>Generated Narrative</b></p><blockquote><p><b>Case Based Surveillance Race Extension</b></p><p><b>value</b>: <span title="{http://terminology.hl7.org/CodeSystem/v2-0005 2106-3}">White</span></p><p><b>value</b>: Mixed</p></blockquote><blockquote><p><b>Case Based Surveillance Ethnicity Extension</b></p><p><b>value</b>: <span title="{http://terminology.hl7.org/CodeSystem/v2-0005 2135-2}">2135-2</span></p><p><b>value</b>: Hispanic or Latino</p></blockquote><p><b>Case Based Surveillance Sex Assigned at Birth Extension</b>: <span title="Codes: {http://terminology.hl7.org/CodeSystem/v2-0001 F}">Female</span></p><p><b>Birth Place</b>: USA </p><p><b>genderIdentity</b>: <span title="Codes: {http://hl7.org/fhir/gender-identity female}">female</span></p><p><b>identifier</b>: Local Record ID: C_auris_02, Local Subject ID: C_auris_PAT_02</p><p><b>name</b>: Yyyyy, Bbbbb</p><p><b>gender</b>: female</p><p><b>birthDate</b>: 1940-01-01</p><p><b>address</b>: </p><ul><li>Georgia 30126 (HOME)</li><li>USA </li></ul></div>
        </text>
        <extension url="http://cbsig.chai.gatech.edu/StructureDefinition/cbs-race">
          <extension url="ombCategory">
            <valueCoding>
              <system value="http://terminology.hl7.org/CodeSystem/v2-0005"/>
              <code value="2106-3"/>
              <display value="White"/>
            </valueCoding>
          </extension>
          <extension url="text">
            <valueString value="Mixed"/>
          </extension>
        </extension>
        <extension url="http://cbsig.chai.gatech.edu/StructureDefinition/cbs-ethnicity">
          <extension url="ombCategory">
            <valueCoding>
              <system value="http://terminology.hl7.org/CodeSystem/v2-0005"/>
              <code value="2135-2"/>
            </valueCoding>
          </extension>
          <extension url="text">
            <valueString value="Hispanic or Latino"/>
          </extension>
        </extension>
        <extension url="http://cbsig.chai.gatech.edu/StructureDefinition/cbs-birthsex">
          <valueCodeableConcept>
            <coding>
              <system value="http://terminology.hl7.org/CodeSystem/v2-0001"/>
              <code value="F"/>
              <display value="Female"/>
            </coding>
          </valueCodeableConcept>
        </extension>
        <extension url="http://hl7.org/fhir/StructureDefinition/patient-birthPlace">
          <valueAddress>
            <country value="USA"/>
          </valueAddress>
        </extension>
        <extension url="http://hl7.org/fhir/StructureDefinition/patient-genderIdentity">
          <valueCodeableConcept>
            <coding>
              <system value="http://hl7.org/fhir/gender-identity"/>
              <code value="female"/>
            </coding>
          </valueCodeableConcept>
        </extension>
        <identifier>
          <type>
            <coding>
              <system value="http://cbsig.chai.gatech.edu/CodeSystem/cbs-temp-code-system"/>
              <code value="Local-Record-ID"/>
              <display value="Local Record ID"/>
            </coding>
            <text value="Local Record ID"/>
          </type>
          <system value="urn:temp:national-reporting-jurisdiction:48"/>
          <value value="C_auris_02"/>
        </identifier>
        <identifier>
          <type>
            <coding>
              <system value="http://cbsig.chai.gatech.edu/CodeSystem/cbs-temp-code-system"/>
              <code value="Local-Subject-ID"/>
              <display value="Local Subject ID"/>
            </coding>
            <text value="Local Subject ID"/>
          </type>
          <system value="urn:temp:national-reporting-jurisdiction:48"/>
          <value value="C_auris_PAT_02"/>
        </identifier>
        <name>
          <text value="Yyyyy, Bbbbb"/>
          <family value="Yyyyy"/>
          <given value="Bbbbb"/>
        </name>
        <gender value="female"/>
        <birthDate value="1940-01-01"/>
        <address>
          <use value="home"/>
          <district value="Cobb"/>
          <state value="Georgia"/>
          <postalCode value="30126"/>
        </address>
        <address>
          <extension url="http://cbsig.chai.gatech.edu/StructureDefinition/cbs-cdc-address-use">
            <valueCoding>
              <system value="http://cbsig.chai.gatech.edu/CodeSystem/cbs-temp-code-system"/>
              <code value="Usual-Residence"/>
            </valueCoding>
          </extension>
          <country value="USA"/>
        </address>
      </Patient>
    </resource>
  </entry>
  <entry>
    <fullUrl value="Condition/HAICA-TC-Condition"/>
    <resource>
      <Condition>
        <id value="HAICA-TC-Condition"/>
        <meta>
          <profile value="http://cbsig.chai.gatech.edu/StructureDefinition/cbs-condition"/>
        </meta>
        <text>
          <status value="extensions"/><div xmlns="http://www.w3.org/1999/xhtml"><p><b>Generated Narrative</b></p><p><b>Case Based Surveillance Case Class Status</b>: <span title="Codes: {http://snomed.info/sct 410605003}">Confirmed present</span></p><p><b>code</b>: <span title="Codes: {urn:oid:2.16.840.1.114222.4.5.277 50263}">Candida auris, clinical</span></p><p><b>subject</b>: <a href="#Patient_HAICA-TC-Patient">HAI-CA TC Example Patient. Generated Summary: Local Record ID: C_auris_02, Local Subject ID: C_auris_PAT_02; Yyyyy, Bbbbb; gender: female; birthDate: 1940-01-01</a></p><p><b>onset</b>: 2018-11-22</p></div>
        </text>
        <extension url="http://cbsig.chai.gatech.edu/StructureDefinition/cbs-case-class-status">
          <valueCodeableConcept>
            <coding>
              <system value="http://snomed.info/sct"/>
              <code value="410605003"/>
              <display value="Confirmed present"/>
            </coding>
          </valueCodeableConcept>
        </extension>
        <code>
          <coding>
            <system value="urn:oid:2.16.840.1.114222.4.5.277"/>
            <code value="50263"/>
            <display value="Candida auris, clinical"/>
          </coding>
        </code>
        <subject>
          <reference value="Patient/HAICA-TC-Patient"/>
          <display value="HAI-CA TC Example Patient"/>
        </subject>
        <onsetDateTime value="2018-11-22"/>
      </Condition>
    </resource>
  </entry>
  <entry>
    <fullUrl value="Encounter/HAICA-TC-Hospitalization"/>
    <resource>
      <Encounter>
        <id value="HAICA-TC-Hospitalization"/>
        <meta>
          <profile value="http://cbsig.chai.gatech.edu/StructureDefinition/cbs-hospitalization"/>
        </meta>
        <text>
          <status value="generated"/><div xmlns="http://www.w3.org/1999/xhtml"><p><b>Generated Narrative</b></p><p><b>status</b>: unknown</p><p><b>class</b>: <span title="{http://terminology.hl7.org/CodeSystem/v3-ActCode IMP}">inpatient encounter</span></p><p><b>subject</b>: <a href="#Patient_HAICA-TC-Patient">HAI-CA TC Example Patient. Generated Summary: Local Record ID: C_auris_02, Local Subject ID: C_auris_PAT_02; Yyyyy, Bbbbb; gender: female; birthDate: 1940-01-01</a></p><p><b>period</b>: 2018-11-24 --&gt; (ongoing)</p><h3>Diagnoses</h3><table class="grid"><tr><td>-</td><td><b>Condition</b></td></tr><tr><td>*</td><td><a href="#Condition_HAICA-TC-Condition">HAI-CA TC Condition of Interest. Generated Summary: <span title="Codes: {urn:oid:2.16.840.1.114222.4.5.277 50263}">Candida auris, clinical</span>; onset: 2018-11-22</a></td></tr></table></div>
        </text>
        <status value="unknown"/>
        <class>
          <system value="http://terminology.hl7.org/CodeSystem/v3-ActCode"/>
          <code value="IMP"/>
        </class>
        <subject>
          <reference value="Patient/HAICA-TC-Patient"/>
          <display value="HAI-CA TC Example Patient"/>
        </subject>
        <period>
          <start value="2018-11-24"/>
        </period>
        <diagnosis>
          <condition>
            <reference value="Condition/HAICA-TC-Condition"/>
            <display value="HAI-CA TC Condition of Interest"/>
          </condition>
        </diagnosis>
      </Encounter>
    </resource>
  </entry>
  <entry>
    <fullUrl value="Practitioner/HAICA-TC-Person-Reporting"/>
    <resource>
      <Practitioner>
        <id value="HAICA-TC-Person-Reporting"/>
        <meta>
          <profile value="http://cbsig.chai.gatech.edu/StructureDefinition/cbs-person-reporting-to-cdc"/>
        </meta>
        <text>
          <status value="generated"/><div xmlns="http://www.w3.org/1999/xhtml"><p><b>Generated Narrative</b></p><p><b>name</b>: von Count, Count</p><p><b>telecom</b>: <a href="mailto:count_voncount@gadph.gov">count_voncount@gadph.gov</a></p></div>
        </text>
        <name>
          <text value="von Count, Count"/>
          <family value="von Count"/>
          <given value="Count"/>
        </name>
        <telecom>
          <system value="email"/>
          <value value="count_voncount@gadph.gov"/>
        </telecom>
      </Practitioner>
    </resource>
  </entry>
  <entry>
    <fullUrl value="Organization/HAICA-TC-Reporting-Source"/>
    <resource>
      <Organization>
        <id value="HAICA-TC-Reporting-Source"/>
        <meta>
          <profile value="http://cbsig.chai.gatech.edu/StructureDefinition/cbs-reporting-source-organization"/>
        </meta>
        <text>
          <status value="generated"/><div xmlns="http://www.w3.org/1999/xhtml"><p><b>Generated Narrative</b></p><p><b>type</b>: <span title="Codes: {http://terminology.hl7.org/CodeSystem/v3-NullFlavor UNK}">Unknown</span></p><p><b>name</b>: Reporting Source</p></div>
        </text>
        <type>
          <coding>
            <system value="http://terminology.hl7.org/CodeSystem/v3-NullFlavor"/>
            <code value="UNK"/>
            <display value="Unknown"/>
          </coding>
        </type>
        <name value="Reporting Source"/>
      </Organization>
    </resource>
  </entry>
  <entry>
    <fullUrl value="Observation/HAICA-TC-CNP"/>
    <resource>
      <Observation>
        <id value="HAICA-TC-CNP"/>
        <meta>
          <profile value="http://cbsig.chai.gatech.edu/StructureDefinition/cbs-case-notification-panel"/>
        </meta>
        <text>
          <status value="generated"/><div xmlns="http://www.w3.org/1999/xhtml"><p><b>Generated Narrative</b></p><p></p><p><b>category</b>: <span title="Codes: {http://loinc.org 78000-7}">Case notification panel [CDC.PHIN]</span></p><p><b>code</b>: <span title="Codes: {http://loinc.org 78000-7}">Case notification panel [CDC.PHIN]</span></p><p><b>subject</b>: <a href="#Patient_HAICA-TC-Patient">HAICA-TC Example Patient. Generated Summary: Local Record ID: C_auris_02, Local Subject ID: C_auris_PAT_02; Yyyyy, Bbbbb; gender: female; birthDate: 1940-01-01</a></p><p><b>hasMember</b>: </p><ul><li><a href="#Observation_HAICA-TC-MMWR">See above (Observation/HAICA-TC-MMWR)</a></li><li><a href="#Observation_HAICA-TC-CNP-Member1">See above (Observation/HAICA-TC-CNP-Member1)</a></li><li><a href="#Observation_HAICA-TC-CNP-Member2">See above (Observation/HAICA-TC-CNP-Member2)</a></li><li><a href="#Observation_HAICA-TC-CNP-Member3">See above (Observation/HAICA-TC-CNP-Member3)</a></li><li><a href="#Observation_HAICA-TC-CNP-Member4">See above (Observation/HAICA-TC-CNP-Member4)</a></li><li><a href="#Observation_HAICA-TC-CNP-Member5">See above (Observation/HAICA-TC-CNP-Member5)</a></li><li><a href="#Observation_HAICA-TC-CNP-Member6">See above (Observation/HAICA-TC-CNP-Member6)</a></li></ul></div>
        </text>
        <status value="final"/>
        <category>
          <coding>
            <system value="http://loinc.org"/>
            <code value="78000-7"/>
            <display value="Case notification panel [CDC.PHIN]"/>
          </coding>
        </category>
        <code>
          <coding>
            <system value="http://loinc.org"/>
            <code value="78000-7"/>
            <display value="Case notification panel [CDC.PHIN]"/>
          </coding>
        </code>
        <subject>
          <reference value="Patient/HAICA-TC-Patient"/>
          <display value="HAICA-TC Example Patient"/>
        </subject>
        <hasMember>
          <reference value="Observation/HAICA-TC-MMWR"/>
        </hasMember>
        <hasMember>
          <reference value="Observation/HAICA-TC-CNP-Member1"/>
        </hasMember>
        <hasMember>
          <reference value="Observation/HAICA-TC-CNP-Member2"/>
        </hasMember>
        <hasMember>
          <reference value="Observation/HAICA-TC-CNP-Member3"/>
        </hasMember>
        <hasMember>
          <reference value="Observation/HAICA-TC-CNP-Member4"/>
        </hasMember>
        <hasMember>
          <reference value="Observation/HAICA-TC-CNP-Member5"/>
        </hasMember>
        <hasMember>
          <reference value="Observation/HAICA-TC-CNP-Member6"/>
        </hasMember>
      </Observation>
    </resource>
  </entry>
  <entry>
    <fullUrl value="Observation/HAICA-TC-MMWR"/>
    <resource>
      <Observation>
        <id value="HAICA-TC-MMWR"/>
        <meta>
          <profile value="http://cbsig.chai.gatech.edu/StructureDefinition/cbs-mmwr"/>
        </meta>
        <text>
          <status value="generated"/><div xmlns="http://www.w3.org/1999/xhtml"><p><b>Generated Narrative</b></p><p></p><p><b>category</b>: <span title="Codes: {http://loinc.org 78000-7}">Case notification panel [CDC.PHIN]</span></p><p><b>code</b>: <span title="Codes: {http://cbsig.chai.gatech.edu/CodeSystem/cbs-temp-code-system MMWR}">MMWR Week/Year</span></p><p><b>subject</b>: <a href="#Patient_HAICA-TC-Patient">HAI-CA TC Example Patient. Generated Summary: Local Record ID: C_auris_02, Local Subject ID: C_auris_PAT_02; Yyyyy, Bbbbb; gender: female; birthDate: 1940-01-01</a></p><blockquote><p><b>component</b></p><p><b>code</b>: <span title="Codes: {http://loinc.org 77991-8}">MMWR Week [CDC.PHIN]</span></p><p><b>value</b>: 48</p></blockquote><blockquote><p><b>component</b></p><p><b>code</b>: <span title="Codes: {http://loinc.org 77992-6}">MMWR Year [CDC.PHIN]</span></p><p><b>value</b>: 2018</p></blockquote></div>
        </text>
        <status value="final"/>
        <category>
          <coding>
            <system value="http://loinc.org"/>
            <code value="78000-7"/>
            <display value="Case notification panel [CDC.PHIN]"/>
          </coding>
        </category>
        <code>
          <coding>
            <system value="http://cbsig.chai.gatech.edu/CodeSystem/cbs-temp-code-system"/>
            <code value="MMWR"/>
          </coding>
        </code>
        <subject>
          <reference value="Patient/HAICA-TC-Patient"/>
          <display value="HAI-CA TC Example Patient"/>
        </subject>
        <component>
          <code>
            <coding>
              <system value="http://loinc.org"/>
              <code value="77991-8"/>
            </coding>
          </code>
          <valueInteger value="48"/>
        </component>
        <component>
          <code>
            <coding>
              <system value="http://loinc.org"/>
              <code value="77992-6"/>
            </coding>
          </code>
          <valueInteger value="2018"/>
        </component>
      </Observation>
    </resource>
  </entry>
  <entry>
    <fullUrl value="Observation/HAICA-TC-CNP-Member1"/>
    <resource>
      <Observation>
        <id value="HAICA-TC-CNP-Member1"/>
        <meta>
          <profile value="http://cbsig.chai.gatech.edu/StructureDefinition/cbs-cnp-member"/>
        </meta>
        <text>
          <status value="generated"/><div xmlns="http://www.w3.org/1999/xhtml"><p><b>Generated Narrative</b></p><p></p><p><b>category</b>: <span title="Codes: {http://loinc.org 78000-7}">Case notification panel [CDC.PHIN]</span></p><p><b>code</b>: <span title="Codes: {http://loinc.org 77966-0}">Reporting state</span></p><p><b>subject</b>: <a href="#Patient_HAICA-TC-Patient">HAICA-TC Example Patient. Generated Summary: Local Record ID: C_auris_02, Local Subject ID: C_auris_PAT_02; Yyyyy, Bbbbb; gender: female; birthDate: 1940-01-01</a></p><p><b>value</b>: <span title="Codes: {urn:oid:2.16.840.1.113883.6.92 13}">Georgia</span></p></div>
        </text>
        <status value="final"/>
        <category>
          <coding>
            <system value="http://loinc.org"/>
            <code value="78000-7"/>
            <display value="Case notification panel [CDC.PHIN]"/>
          </coding>
        </category>
        <code>
          <coding>
            <system value="http://loinc.org"/>
            <code value="77966-0"/>
            <display value="Reporting state"/>
          </coding>
        </code>
        <subject>
          <reference value="Patient/HAICA-TC-Patient"/>
          <display value="HAICA-TC Example Patient"/>
        </subject>
        <valueCodeableConcept>
          <coding>
            <system value="urn:oid:2.16.840.1.113883.6.92"/>
            <code value="13"/>
            <display value="Georgia"/>
          </coding>
        </valueCodeableConcept>
      </Observation>
    </resource>
  </entry>
  <entry>
    <fullUrl value="Observation/HAICA-TC-CNP-Member2"/>
    <resource>
      <Observation>
        <id value="HAICA-TC-CNP-Member2"/>
        <meta>
          <profile value="http://cbsig.chai.gatech.edu/StructureDefinition/cbs-cnp-member"/>
        </meta>
        <text>
          <status value="generated"/><div xmlns="http://www.w3.org/1999/xhtml"><p><b>Generated Narrative</b></p><p></p><p><b>category</b>: <span title="Codes: {http://loinc.org 78000-7}">Case notification panel [CDC.PHIN]</span></p><p><b>code</b>: <span title="Codes: {http://loinc.org 77967-8}">Reporting county</span></p><p><b>subject</b>: <a href="#Patient_HAICA-TC-Patient">HAICA-TC Example Patient. Generated Summary: Local Record ID: C_auris_02, Local Subject ID: C_auris_PAT_02; Yyyyy, Bbbbb; gender: female; birthDate: 1940-01-01</a></p><p><b>value</b>: <span title="Codes: {urn:oid:2.16.840.1.113883.6.93 13067}">Cobb</span></p></div>
        </text>
        <status value="final"/>
        <category>
          <coding>
            <system value="http://loinc.org"/>
            <code value="78000-7"/>
            <display value="Case notification panel [CDC.PHIN]"/>
          </coding>
        </category>
        <code>
          <coding>
            <system value="http://loinc.org"/>
            <code value="77967-8"/>
            <display value="Reporting county"/>
          </coding>
        </code>
        <subject>
          <reference value="Patient/HAICA-TC-Patient"/>
          <display value="HAICA-TC Example Patient"/>
        </subject>
        <valueCodeableConcept>
          <coding>
            <system value="urn:oid:2.16.840.1.113883.6.93"/>
            <code value="13067"/>
            <display value="Cobb"/>
          </coding>
        </valueCodeableConcept>
      </Observation>
    </resource>
  </entry>
  <entry>
    <fullUrl value="Observation/HAICA-TC-CNP-Member3"/>
    <resource>
      <Observation>
        <id value="HAICA-TC-CNP-Member3"/>
        <meta>
          <profile value="http://cbsig.chai.gatech.edu/StructureDefinition/cbs-cnp-member"/>
        </meta>
        <text>
          <status value="generated"/><div xmlns="http://www.w3.org/1999/xhtml"><p><b>Generated Narrative</b></p><p></p><p><b>category</b>: <span title="Codes: {http://loinc.org 78000-7}">Case notification panel [CDC.PHIN]</span></p><p><b>code</b>: <span title="Codes: {http://loinc.org 77968-6}">National reporting jurisdiction</span></p><p><b>subject</b>: <a href="#Patient_HAICA-TC-Patient">HAICA-TC Example Patient. Generated Summary: Local Record ID: C_auris_02, Local Subject ID: C_auris_PAT_02; Yyyyy, Bbbbb; gender: female; birthDate: 1940-01-01</a></p><p><b>value</b>: <span title="Codes: {urn:oid:2.16.840.1.113883.6.92 13}">Georgia</span></p></div>
        </text>
        <status value="final"/>
        <category>
          <coding>
            <system value="http://loinc.org"/>
            <code value="78000-7"/>
            <display value="Case notification panel [CDC.PHIN]"/>
          </coding>
        </category>
        <code>
          <coding>
            <system value="http://loinc.org"/>
            <code value="77968-6"/>
            <display value="National reporting jurisdiction"/>
          </coding>
        </code>
        <subject>
          <reference value="Patient/HAICA-TC-Patient"/>
          <display value="HAICA-TC Example Patient"/>
        </subject>
        <valueCodeableConcept>
          <coding>
            <system value="urn:oid:2.16.840.1.113883.6.92"/>
            <code value="13"/>
            <display value="Georgia"/>
          </coding>
        </valueCodeableConcept>
      </Observation>
    </resource>
  </entry>
  <entry>
    <fullUrl value="Observation/HAICA-TC-CNP-Member4"/>
    <resource>
      <Observation>
        <id value="HAICA-TC-CNP-Member4"/>
        <meta>
          <profile value="http://cbsig.chai.gatech.edu/StructureDefinition/cbs-cnp-member"/>
        </meta>
        <text>
          <status value="generated"/><div xmlns="http://www.w3.org/1999/xhtml"><p><b>Generated Narrative</b></p><p></p><p><b>category</b>: <span title="Codes: {http://loinc.org 78000-7}">Case notification panel [CDC.PHIN]</span></p><p><b>code</b>: <span title="Codes: {http://loinc.org 77989-2}">Disease transmission mode</span></p><p><b>subject</b>: <a href="#Patient_HAICA-TC-Patient">HAICA-TC Example Patient. Generated Summary: Local Record ID: C_auris_02, Local Subject ID: C_auris_PAT_02; Yyyyy, Bbbbb; gender: female; birthDate: 1940-01-01</a></p><p><b>value</b>: <span title="Codes: {http://snomed.info/sct 418375005}">Indeterminate disease transmission mode</span></p></div>
        </text>
        <status value="final"/>
        <category>
          <coding>
            <system value="http://loinc.org"/>
            <code value="78000-7"/>
            <display value="Case notification panel [CDC.PHIN]"/>
          </coding>
        </category>
        <code>
          <coding>
            <system value="http://loinc.org"/>
            <code value="77989-2"/>
            <display value="Disease transmission mode"/>
          </coding>
        </code>
        <subject>
          <reference value="Patient/HAICA-TC-Patient"/>
          <display value="HAICA-TC Example Patient"/>
        </subject>
        <valueCodeableConcept>
          <coding>
            <system value="http://snomed.info/sct"/>
            <code value="418375005"/>
            <display value="Indeterminate disease transmission mode"/>
          </coding>
        </valueCodeableConcept>
      </Observation>
    </resource>
  </entry>
  <entry>
    <fullUrl value="Observation/HAICA-TC-CNP-Member5"/>
    <resource>
      <Observation>
        <id value="HAICA-TC-CNP-Member5"/>
        <meta>
          <profile value="http://cbsig.chai.gatech.edu/StructureDefinition/cbs-cnp-member"/>
        </meta>
        <text>
          <status value="generated"/><div xmlns="http://www.w3.org/1999/xhtml"><p><b>Generated Narrative</b></p><p></p><p><b>category</b>: <span title="Codes: {http://loinc.org 78000-7}">Case notification panel [CDC.PHIN]</span></p><p><b>code</b>: <span title="Codes: {http://loinc.org 77996-7}">Pregnancy status at time of illness or condition</span></p><p><b>subject</b>: <a href="#Patient_HAICA-TC-Patient">HAICA-TC Example Patient. Generated Summary: Local Record ID: C_auris_02, Local Subject ID: C_auris_PAT_02; Yyyyy, Bbbbb; gender: female; birthDate: 1940-01-01</a></p><p><b>value</b>: <span title="Codes: {http://terminology.hl7.org/CodeSystem/v2-0532 N}">No</span></p></div>
        </text>
        <status value="final"/>
        <category>
          <coding>
            <system value="http://loinc.org"/>
            <code value="78000-7"/>
            <display value="Case notification panel [CDC.PHIN]"/>
          </coding>
        </category>
        <code>
          <coding>
            <system value="http://loinc.org"/>
            <code value="77996-7"/>
            <display value="Pregnancy status at time of illness or condition"/>
          </coding>
        </code>
        <subject>
          <reference value="Patient/HAICA-TC-Patient"/>
          <display value="HAICA-TC Example Patient"/>
        </subject>
        <valueCodeableConcept>
          <coding>
            <system value="http://terminology.hl7.org/CodeSystem/v2-0532"/>
            <code value="N"/>
          </coding>
        </valueCodeableConcept>
      </Observation>
    </resource>
  </entry>
  <entry>
    <fullUrl value="Observation/HAICA-TC-CNP-Member6"/>
    <resource>
      <Observation>
        <id value="HAICA-TC-CNP-Member6"/>
        <meta>
          <profile value="http://cbsig.chai.gatech.edu/StructureDefinition/cbs-cnp-member"/>
        </meta>
        <text>
          <status value="generated"/><div xmlns="http://www.w3.org/1999/xhtml"><p><b>Generated Narrative</b></p><p></p><p><b>category</b>: <span title="Codes: {http://loinc.org 78000-7}">Case notification panel [CDC.PHIN]</span></p><p><b>code</b>: <span title="Codes: {http://loinc.org 77998-3}">Age at time of case investigation</span></p><p><b>subject</b>: <a href="#Patient_HAICA-TC-Patient">HAICA-TC Example Patient. Generated Summary: Local Record ID: C_auris_02, Local Subject ID: C_auris_PAT_02; Yyyyy, Bbbbb; gender: female; birthDate: 1940-01-01</a></p><p><b>value</b>: 78 year</p></div>
        </text>
        <status value="final"/>
        <category>
          <coding>
            <system value="http://loinc.org"/>
            <code value="78000-7"/>
            <display value="Case notification panel [CDC.PHIN]"/>
          </coding>
        </category>
        <code>
          <coding>
            <system value="http://loinc.org"/>
            <code value="77998-3"/>
            <display value="Age at time of case investigation"/>
          </coding>
        </code>
        <subject>
          <reference value="Patient/HAICA-TC-Patient"/>
          <display value="HAICA-TC Example Patient"/>
        </subject>
        <valueQuantity>
          <value value="78"/>
          <unit value="year"/>
          <system value="http://unitsofmeasure.org"/>
          <code value="a"/>
        </valueQuantity>
      </Observation>
    </resource>
  </entry>
  <entry>
    <fullUrl value="Specimen/HAICA-TC-Specimen"/>
    <resource>
      <Specimen>
        <id value="HAICA-TC-Specimen"/>
        <meta>
          <profile value="http://cbsig.chai.gatech.edu/StructureDefinition/cbs-specimen"/>
        </meta>
        <text>
          <status value="generated"/><div xmlns="http://www.w3.org/1999/xhtml"><p><b>Generated Narrative</b></p><p><b>identifier</b>: State Lab Specimen ID: IDR908765140, Performing Laboratory Specimen ID: 198374-9</p><p><b>type</b>: <span title="Codes: {http://snomed.info/sct 119297000}">Blood specimen</span></p><p><b>subject</b>: <a href="#Patient_HAICA-TC-Patient">HAICA-TC Example Patient. Generated Summary: Local Record ID: C_auris_02, Local Subject ID: C_auris_PAT_02; Yyyyy, Bbbbb; gender: female; birthDate: 1940-01-01</a></p><h3>Collections</h3><table class="grid"><tr><td>-</td><td><b>Collected[x]</b></td></tr><tr><td>*</td><td>2018-11-24</td></tr></table></div>
        </text>
        <identifier>
          <type>
            <coding>
              <system value="urn:oid:2.16.840.1.114222.4.5.232"/>
              <code value="PLT687"/>
              <display value="State Lab Specimen ID"/>
            </coding>
          </type>
          <value value="IDR908765140"/>
        </identifier>
        <identifier>
          <type>
            <coding>
              <system value="urn:oid:2.16.840.1.114222.4.5.232"/>
              <code value="LAB202"/>
              <display value="Performing Laboratory Specimen ID"/>
            </coding>
          </type>
          <value value="198374-9"/>
        </identifier>
        <type>
          <coding>
            <system value="http://snomed.info/sct"/>
            <code value="119297000"/>
            <display value="Blood specimen"/>
          </coding>
        </type>
        <subject>
          <reference value="Patient/HAICA-TC-Patient"/>
          <display value="HAICA-TC Example Patient"/>
        </subject>
        <collection>
          <collectedDateTime value="2018-11-24"/>
        </collection>
      </Specimen>
    </resource>
  </entry>
  <entry>
    <fullUrl value="DiagnosticReport/HAICA-TC-Lab-DiagnosticReport"/>
    <resource>
      <DiagnosticReport>
        <id value="HAICA-TC-Lab-DiagnosticReport"/>
        <meta>
          <profile value="http://cbsig.chai.gatech.edu/StructureDefinition/cbs-lab-diagnosticreport"/>
        </meta>
        <text>
          <status value="generated"/><div xmlns="http://www.w3.org/1999/xhtml"><p><b>Generated Narrative</b></p><p><b>status</b>: final</p><p><b>category</b>: <span title="Codes: {http://terminology.hl7.org/CodeSystem/v2-0074 LAB}">Laboratory</span></p><p><b>code</b>: <span title="Codes: {http://loinc.org 85069-3}">Lab test method [Type]</span></p><p><b>subject</b>: <a href="#Patient_HAICA-TC-Patient">See above (Patient/HAICA-TC-Patient)</a></p><p><b>specimen</b>: <a href="#Specimen_HAICA-TC-Specimen">See above (Specimen/HAICA-TC-Specimen)</a></p><p><b>result</b>: <a href="#Observation_HAICA-TC-Lab-Observation">See above (Observation/HAICA-TC-Lab-Observation)</a></p></div>
        </text>
        <status value="final"/>
        <category>
          <coding>
            <system value="http://terminology.hl7.org/CodeSystem/v2-0074"/>
            <code value="LAB"/>
          </coding>
        </category>
        <code>
          <coding>
            <system value="http://loinc.org"/>
            <code value="85069-3"/>
          </coding>
        </code>
        <subject>
          <reference value="Patient/HAICA-TC-Patient"/>
        </subject>
        <specimen>
          <reference value="Specimen/HAICA-TC-Specimen"/>
        </specimen>
        <result>
          <reference value="Observation/HAICA-TC-Lab-Observation"/>
        </result>
      </DiagnosticReport>
    </resource>
  </entry>
  <entry>
    <fullUrl value="Observation/HAICA-TC-Lab-Observation"/>
    <resource>
      <Observation>
        <id value="HAICA-TC-Lab-Observation"/>
        <meta>
          <profile value="http://cbsig.chai.gatech.edu/StructureDefinition/cbs-lab-observation"/>
        </meta>
        <text>
          <status value="generated"/><div xmlns="http://www.w3.org/1999/xhtml"><p><b>Generated Narrative</b></p><p></p><p><b>category</b>: <span title="Codes: {http://terminology.hl7.org/CodeSystem/observation-category laboratory}">Laboratory</span></p><p><b>code</b>: <span title="Codes: {urn:oid:2.16.840.1.114222.4.5.232 LAB723}">DNA Sequencing</span></p><p><b>subject</b>: <a href="#Patient_HAICA-TC-Patient">HAICA-TC Example Patient. Generated Summary: Local Record ID: C_auris_02, Local Subject ID: C_auris_PAT_02; Yyyyy, Bbbbb; gender: female; birthDate: 1940-01-01</a></p><p><b>value</b>: <span title="Codes: {http://snomed.info/sct 10828004}">Positive</span></p><p><b>method</b>: <span title="Codes: ">D1/D2</span></p></div>
        </text>
        <status value="final"/>
        <category>
          <coding>
            <system value="http://terminology.hl7.org/CodeSystem/observation-category"/>
            <code value="laboratory"/>
          </coding>
        </category>
        <code>
          <coding>
            <system value="urn:oid:2.16.840.1.114222.4.5.232"/>
            <code value="LAB723"/>
            <display value="DNA Sequencing"/>
          </coding>
        </code>
        <subject>
          <reference value="Patient/HAICA-TC-Patient"/>
          <display value="HAICA-TC Example Patient"/>
        </subject>
        <valueCodeableConcept>
          <coding>
            <system value="http://snomed.info/sct"/>
            <code value="10828004"/>
            <display value="Positive"/>
          </coding>
        </valueCodeableConcept>
        <method>
          <coding>
            <code value="D1D2"/>
            <display value="D1/D2"/>
          </coding>
        </method>
      </Observation>
    </resource>
  </entry>
</Bundle>